Accel X,Accel Y,Accel Z,MoCap X,Mocap Y,Mocap Z,Classification
-1.321662,2.259372,-0.523321,2.278500,1.234000,-0.444000,1
-1.360889,2.220145,-0.523321,2.278100,1.233800,-0.443800,1
-1.360889,2.220145,-0.523321,2.277800,1.233700,-0.443600,1
-1.321662,2.063239,-0.523321,2.277400,1.233600,-0.443500,1
-1.164756,1.945559,-0.444867,2.277100,1.233500,-0.443400,1
-1.164756,1.867105,-0.405642,2.276800,1.233300,-0.443200,1
-1.164756,1.867105,-0.405642,2.276500,1.233200,-0.443000,1
-1.243209,1.867105,-0.484094,2.276300,1.233000,-0.442900,1
-1.243209,1.827879,-0.484094,2.276000,1.232800,-0.442700,1
-1.282436,1.788652,-0.405642,2.275800,1.232600,-0.442600,1
-1.321662,1.749426,-0.444867,2.275600,1.232500,-0.442500,1
-1.321662,1.631746,-0.405642,2.275500,1.232300,-0.442300,1
-1.321662,1.514066,-0.327188,2.275400,1.232200,-0.442200,1
-1.282436,1.474840,-0.366415,2.275300,1.232000,-0.442200,1
-1.243209,1.474840,-0.366415,2.275300,1.231900,-0.442200,1
-1.243209,1.474840,-0.366415,2.275300,1.231700,-0.442100,1
-1.282436,1.474840,-0.366415,2.275400,1.231500,-0.442100,1
-1.282436,1.514066,-0.366415,2.275400,1.231400,-0.442100,1
-1.282436,1.514066,-0.366415,2.275500,1.231200,-0.442100,1
-1.321662,1.592519,-0.287961,2.275600,1.231200,-0.442100,1
-1.282436,1.631746,-0.248734,2.275700,1.231000,-0.442100,1
-1.321662,1.631746,-0.327188,2.275700,1.230900,-0.442100,1
-1.321662,1.631746,-0.327188,2.275800,1.230700,-0.442100,1
-1.321662,1.592519,-0.405642,2.275900,1.230600,-0.442100,1
-1.282436,1.553293,-0.405642,2.275900,1.230500,-0.442100,1
-1.282436,1.553293,-0.405642,2.276100,1.230400,-0.442100,1
-1.321662,1.474840,-0.405642,2.276100,1.230300,-0.442200,1
-1.282436,1.435613,-0.366415,2.276100,1.230200,-0.442100,1
-1.282436,1.435613,-0.444867,2.276200,1.230100,-0.442100,1
-1.321662,1.514066,-0.405642,2.276200,1.230100,-0.442100,1
-1.321662,1.514066,-0.405642,2.276200,1.230000,-0.442100,1
-1.243209,1.553293,-0.405642,2.276200,1.229900,-0.442100,1
-1.282436,1.592519,-0.444867,2.276200,1.229900,-0.442000,1
-1.321662,1.631746,-0.405642,2.276300,1.229700,-0.442000,1
-1.321662,1.670973,-0.444867,2.276300,1.229700,-0.442000,1
-1.321662,1.670973,-0.444867,2.276300,1.229700,-0.441900,1
-1.321662,1.592519,-0.484094,2.276300,1.229700,-0.441900,1
-1.360889,1.592519,-0.523321,2.276300,1.229700,-0.441800,1
-1.400115,1.631746,-0.405642,2.276300,1.229600,-0.441800,1
-1.400115,1.631746,-0.405642,2.276300,1.229600,-0.441700,1
-1.360889,1.631746,-0.444867,2.276300,1.229600,-0.441700,1
-1.321662,1.670973,-0.444867,2.276200,1.229600,-0.441600,1
-1.321662,1.670973,-0.444867,2.276200,1.229700,-0.441500,1
-1.360889,1.670973,-0.484094,2.276100,1.229600,-0.441500,1
-1.360889,1.710199,-0.444867,2.276000,1.229600,-0.441400,1
-1.360889,1.514066,-0.444867,2.276000,1.229500,-0.441300,1
-1.321662,1.474840,-0.405642,2.276000,1.229600,-0.441200,1
-1.478569,1.396386,-0.523321,2.275900,1.229500,-0.441100,1
-1.478569,1.396386,-0.523321,2.275900,1.229600,-0.441100,1
-1.400115,1.317933,-0.444867,2.275800,1.229500,-0.441000,1
-1.478569,1.278707,-0.444867,2.275700,1.229500,-0.440900,1
-1.478569,1.278707,-0.444867,2.275700,1.229400,-0.440800,1
-1.400115,1.239480,-0.444867,2.275600,1.229400,-0.440700,1
-1.478569,1.317933,-0.444867,2.275500,1.229400,-0.440600,1
-1.517795,1.317933,-0.444867,2.275500,1.229200,-0.440400,1
-1.517795,1.317933,-0.444867,2.275400,1.229200,-0.440300,1
-1.478569,1.357160,-0.444867,2.275200,1.229200,-0.440200,1
-1.439342,1.435613,-0.444867,2.275200,1.229100,-0.440100,1
-1.439342,1.435613,-0.444867,2.275000,1.229000,-0.440000,1
-1.400115,1.514066,-0.366415,2.275000,1.229000,-0.439900,1
-1.400115,1.553293,-0.405642,2.274900,1.228900,-0.439700,1
-1.400115,1.553293,-0.405642,2.274800,1.228800,-0.439600,1
-1.400115,1.553293,-0.405642,2.274700,1.228800,-0.439600,1
-1.400115,1.631746,-0.444867,2.274700,1.228700,-0.439400,1
-1.478569,1.631746,-0.405642,2.274600,1.228700,-0.439300,1
-1.478569,1.592519,-0.366415,2.274500,1.228700,-0.439200,1
-1.478569,1.592519,-0.366415,2.274500,1.228600,-0.439100,1
-1.439342,1.514066,-0.484094,2.274500,1.228600,-0.439000,1
-1.478569,1.474840,-0.484094,2.274400,1.228500,-0.438900,1
-1.478569,1.435613,-0.405642,2.274300,1.228400,-0.438800,1
-1.478569,1.435613,-0.405642,2.274300,1.228400,-0.438700,1
-1.478569,1.514066,-0.405642,2.274300,1.228400,-0.438600,1
-1.439342,1.514066,-0.484094,2.274200,1.228300,-0.438500,1
-1.439342,1.514066,-0.484094,2.274200,1.228300,-0.438400,1
-1.439342,1.553293,-0.405642,2.274200,1.228200,-0.438300,1
-1.400115,1.553293,-0.405642,2.274100,1.228200,-0.438300,1
-1.400115,1.553293,-0.405642,2.274100,1.228100,-0.438200,1
-1.400115,1.592519,-0.366415,2.274200,1.228100,-0.438100,1
-1.400115,1.592519,-0.327188,2.274200,1.228100,-0.438000,1
-1.321662,1.631746,-0.366415,2.274200,1.228000,-0.437900,1
-1.360889,1.631746,-0.366415,2.274100,1.228000,-0.437800,1
-1.360889,1.631746,-0.366415,2.274200,1.227900,-0.437800,1
-1.360889,1.553293,-0.366415,2.274200,1.227800,-0.437600,1
-1.360889,1.435613,-0.327188,2.274100,1.227800,-0.437600,1
-1.439342,1.396386,-0.327188,2.274000,1.227800,-0.437500,1
-1.439342,1.396386,-0.327188,2.273900,1.227700,-0.437400,1
-1.439342,1.317933,-0.327188,2.273800,1.227600,-0.437300,1
-1.400115,1.239480,-0.287961,2.273700,1.227600,-0.437200,1
-1.439342,1.161027,-0.327188,2.273500,1.227500,-0.437100,1
-1.439342,1.161027,-0.327188,2.273500,1.227400,-0.437000,1
-1.400115,1.121800,-0.287961,2.273300,1.227400,-0.436900,1
-1.439342,1.121800,-0.287961,2.273200,1.227400,-0.436800,1
-1.439342,1.121800,-0.287961,2.273100,1.227300,-0.436800,1
-1.439342,1.121800,-0.287961,2.273000,1.227200,-0.436700,1
-1.439342,1.121800,-0.248734,2.272900,1.227200,-0.436600,1
-1.400115,1.121800,-0.287961,2.272900,1.227200,-0.436600,1
-1.360889,1.082574,-0.287961,2.272800,1.227100,-0.436500,1
-1.360889,1.082574,-0.287961,2.272800,1.227100,-0.436500,1
-1.400115,1.161027,-0.209508,2.272700,1.227000,-0.436500,1
-1.400115,1.200253,-0.209508,2.272600,1.227000,-0.436400,1
-1.400115,1.200253,-0.209508,2.272500,1.227000,-0.436400,1
-1.478569,1.278707,-0.209508,2.272500,1.226900,-0.436400,1
-1.478569,1.239480,-0.248734,2.272500,1.226900,-0.436300,1
-1.478569,1.200253,-0.248734,2.272400,1.226900,-0.436400,1
-1.478569,1.200253,-0.248734,2.272300,1.226800,-0.436400,1
-1.439342,1.121800,-0.248734,2.272300,1.226800,-0.436400,1
-1.439342,1.043347,-0.287961,2.272300,1.226800,-0.436400,1
-1.439342,0.964894,-0.327188,2.272300,1.226800,-0.436400,1
-1.400115,0.964894,-0.327188,2.272300,1.226700,-0.436400,1
-1.400115,0.964894,-0.327188,2.272300,1.226700,-0.436400,1
-1.400115,0.964894,-0.327188,2.272400,1.226700,-0.436400,1
-1.360889,0.964894,-0.327188,2.272400,1.226700,-0.436400,1
-1.360889,0.964894,-0.327188,2.272500,1.226600,-0.436500,1
-1.360889,1.082574,-0.327188,2.272500,1.226600,-0.436400,1
-1.360889,1.161027,-0.327188,2.272600,1.226600,-0.436400,1
-1.321662,1.239480,-0.327188,2.272600,1.226600,-0.436500,1
-1.321662,1.239480,-0.327188,2.272600,1.226600,-0.436500,1
-1.360889,1.278707,-0.327188,2.272700,1.226700,-0.436500,1
-1.282436,1.278707,-0.327188,2.272700,1.226600,-0.436500,1
-1.282436,1.239480,-0.366415,2.272600,1.226700,-0.436500,1
-1.282436,1.239480,-0.366415,2.272600,1.226700,-0.436500,1
-1.282436,1.239480,-0.366415,2.272600,1.226700,-0.436500,1
-1.243209,1.239480,-0.327188,2.272500,1.226800,-0.436400,1
-1.282436,1.278707,-0.366415,2.272500,1.226800,-0.436400,1
-1.282436,1.278707,-0.366415,2.272300,1.226800,-0.436400,1
-1.360889,1.278707,-0.327188,2.272300,1.226900,-0.436400,1
-1.439342,1.239480,-0.366415,2.272200,1.226900,-0.436300,1
-1.439342,1.239480,-0.366415,2.272100,1.227100,-0.436300,1
-1.439342,1.121800,-0.327188,2.272200,1.227100,-0.436300,1
-1.439342,1.004120,-0.405642,2.272100,1.227200,-0.436300,1
-1.439342,0.925667,-0.327188,2.272100,1.227300,-0.436300,1
-1.439342,0.847214,-0.327188,2.272000,1.227400,-0.436300,1
-1.439342,0.847214,-0.327188,2.271900,1.227500,-0.436300,1
-1.478569,0.847214,-0.287961,2.271800,1.227600,-0.436300,1
-1.439342,0.886441,-0.170281,2.271800,1.227600,-0.436200,1
-1.439342,0.886441,-0.170281,2.271600,1.227800,-0.436300,1
-1.439342,0.964894,-0.170281,2.271500,1.227900,-0.436300,1
-1.439342,1.043347,-0.170281,2.271400,1.227900,-0.436200,1
-1.478569,1.082574,-0.170281,2.271400,1.228000,-0.436200,1
-1.478569,1.082574,-0.170281,2.271300,1.228100,-0.436200,1
-1.439342,0.925667,-0.170281,2.271100,1.228200,-0.436200,1
-1.517795,0.807987,-0.209508,2.271100,1.228300,-0.436200,1
-1.517795,0.807987,-0.209508,2.271100,1.228300,-0.436200,1
-1.360889,0.494174,-0.170281,2.271100,1.228400,-0.436200,1
-1.360889,0.494174,-0.170281,2.271000,1.228500,-0.436200,1
-1.360889,0.454948,-0.170281,2.271100,1.228600,-0.436200,1
-1.360889,0.454948,-0.131055,2.271100,1.228600,-0.436200,1
-1.360889,0.376495,-0.170281,2.271100,1.228700,-0.436100,1
-1.360889,0.376495,-0.170281,2.271200,1.228700,-0.436200,1
-1.321662,0.415721,-0.170281,2.271300,1.228800,-0.436200,1
-1.321662,0.454948,-0.170281,2.271400,1.228800,-0.436200,1
-1.321662,0.454948,-0.170281,2.271600,1.228900,-0.436200,1
-1.321662,0.494174,-0.209508,2.271700,1.228900,-0.436300,1
-1.282436,0.494174,-0.170281,2.272000,1.228900,-0.436300,1
-1.360889,0.572628,-0.131055,2.272000,1.229000,-0.436400,1
-1.360889,0.572628,-0.131055,2.272200,1.229000,-0.436500,1
-1.400115,0.572628,-0.170281,2.272400,1.229000,-0.436500,1
-1.400115,0.572628,-0.170281,2.272500,1.229100,-0.436700,1
-1.360889,0.572628,-0.091828,2.272800,1.229100,-0.436800,1
-1.360889,0.572628,-0.091828,2.273000,1.229100,-0.436800,1
-1.360889,0.533401,-0.131055,2.273200,1.229200,-0.436900,1
-1.400115,0.533401,-0.170281,2.273400,1.229200,-0.437100,1
-1.400115,0.572628,-0.131055,2.273700,1.229300,-0.437200,1
-1.400115,0.572628,-0.131055,2.273900,1.229300,-0.437300,1
-1.400115,0.572628,-0.170281,2.274200,1.229400,-0.437400,1
-1.360889,0.572628,-0.131055,2.274400,1.229400,-0.437600,1
-1.360889,0.572628,-0.131055,2.274600,1.229500,-0.437700,1
-1.321662,0.611854,-0.170281,2.274800,1.229500,-0.437900,1
-1.321662,0.651081,-0.131055,2.274900,1.229600,-0.438000,1
-1.321662,0.690307,-0.091828,2.274900,1.229700,-0.438100,1
-1.321662,0.768761,-0.170281,2.275100,1.229700,-0.438200,1
-1.321662,0.768761,-0.170281,2.275100,1.229800,-0.438300,1
-1.282436,0.807987,-0.248734,2.275100,1.229800,-0.438300,1
-1.282436,0.807987,-0.209508,2.275100,1.229800,-0.438400,1
-1.282436,0.807987,-0.209508,2.275200,1.229800,-0.438400,1
-1.321662,0.847214,-0.209508,2.275200,1.229900,-0.438500,1
-1.321662,0.847214,-0.170281,2.275300,1.229900,-0.438500,1
-1.243209,0.847214,-0.170281,2.275300,1.229900,-0.438600,1
-1.243209,0.847214,-0.209508,2.275300,1.230000,-0.438700,1
-1.243209,0.847214,-0.209508,2.275300,1.230000,-0.438700,1
-1.282436,0.807987,-0.209508,2.275300,1.230100,-0.438700,1
-1.321662,0.807987,-0.248734,2.275300,1.230000,-0.438800,1
-1.321662,0.807987,-0.248734,2.275200,1.230100,-0.438800,1
-1.360889,0.768761,-0.287961,2.275200,1.230100,-0.438900,1
-1.321662,0.768761,-0.287961,2.275100,1.230200,-0.438900,1
-1.282436,0.729534,-0.248734,2.275100,1.230100,-0.438900,1
-1.282436,0.729534,-0.248734,2.275100,1.230100,-0.438900,1
-1.282436,0.729534,-0.327188,2.275000,1.230200,-0.438900,1
-1.282436,0.768761,-0.327188,2.274900,1.230200,-0.438900,1
-1.321662,0.768761,-0.287961,2.274800,1.230200,-0.438900,1
-1.282436,0.768761,-0.327188,2.274700,1.230300,-0.438900,1
-1.282436,0.768761,-0.327188,2.274700,1.230300,-0.438900,1
-1.360889,0.768761,-0.327188,2.274600,1.230300,-0.438900,1
-1.400115,0.807987,-0.327188,2.274500,1.230400,-0.438900,1
-1.400115,0.807987,-0.327188,2.274400,1.230400,-0.438900,1
-1.400115,0.768761,-0.327188,2.274200,1.230400,-0.438900,1
-1.360889,0.768761,-0.366415,2.274100,1.230400,-0.438900,1
-1.321662,0.768761,-0.327188,2.274000,1.230500,-0.438900,1
-1.321662,0.768761,-0.327188,2.273800,1.230500,-0.438900,1
-1.282436,0.729534,-0.366415,2.273700,1.230600,-0.438800,1
-1.321662,0.807987,-0.366415,2.273500,1.230600,-0.438800,1
-1.360889,0.768761,-0.366415,2.273400,1.230700,-0.438800,1
-1.360889,0.768761,-0.366415,2.273200,1.230700,-0.438800,1
-1.360889,0.807987,-0.327188,2.273100,1.230700,-0.438800,1
-1.360889,0.768761,-0.287961,2.273000,1.230800,-0.438800,1
-1.360889,0.768761,-0.287961,2.272900,1.230800,-0.438800,1
-1.360889,0.768761,-0.248734,2.272800,1.230900,-0.438800,1
-1.400115,0.768761,-0.248734,2.272800,1.230900,-0.438700,1
-1.400115,0.768761,-0.248734,2.272700,1.230900,-0.438800,1
-1.400115,0.768761,-0.248734,2.272700,1.231000,-0.438800,1
-1.439342,0.729534,-0.209508,2.272700,1.231000,-0.438700,1
-1.439342,0.690307,-0.287961,2.272600,1.231000,-0.438800,1
-1.439342,0.690307,-0.287961,2.272600,1.231000,-0.438800,1
-1.478569,0.729534,-0.248734,2.272600,1.231100,-0.438800,1
-1.439342,0.690307,-0.248734,2.272600,1.231100,-0.438800,1
-1.439342,0.690307,-0.248734,2.272500,1.231100,-0.438800,1
-1.439342,0.690307,-0.248734,2.272600,1.231100,-0.438800,1
-1.478569,0.729534,-0.170281,2.272500,1.231100,-0.438800,1
-1.478569,0.729534,-0.131055,2.272600,1.231000,-0.438800,1
-1.478569,0.729534,-0.131055,2.272500,1.231000,-0.438900,1
-1.478569,0.768761,-0.052602,2.272500,1.231000,-0.438800,1
-1.478569,0.807987,-0.052602,2.272500,1.230900,-0.438800,1
-1.517795,0.807987,0.000000,2.272500,1.230900,-0.438800,1
-1.517795,0.807987,0.000000,2.272500,1.230800,-0.438900,1
-1.517795,0.807987,-0.052602,2.272600,1.230700,-0.438900,1
-1.557022,0.768761,-0.091828,2.272600,1.230700,-0.438900,1
-1.557022,0.768761,-0.091828,2.272600,1.230600,-0.438900,1
-1.517795,0.729534,0.000000,2.272600,1.230500,-0.439000,1
-1.517795,0.729534,0.000000,2.272600,1.230400,-0.439000,1
-1.439342,0.651081,-0.052602,2.272700,1.230200,-0.439000,1
-1.478569,0.690307,-0.052602,2.272700,1.230100,-0.439000,1
-1.478569,0.690307,-0.052602,2.272700,1.230000,-0.439100,1
-1.517795,0.690307,0.000000,2.272800,1.229900,-0.439100,1
-1.478569,0.690307,-0.131055,2.272800,1.229700,-0.439100,1
-1.439342,0.729534,-0.091828,2.272900,1.229500,-0.439200,1
-1.439342,0.729534,-0.091828,2.273000,1.229400,-0.439200,1
-1.400115,0.729534,0.000000,2.273000,1.229200,-0.439200,1
-1.400115,0.729534,0.000000,2.273100,1.229100,-0.439300,1
-1.400115,0.729534,-0.052602,2.273200,1.228900,-0.439300,1
-1.400115,0.729534,-0.052602,2.273200,1.228700,-0.439400,1
-1.439342,0.768761,-0.091828,2.273300,1.228500,-0.439400,1
-1.439342,0.768761,-0.131055,2.273300,1.228400,-0.439500,1
-1.439342,0.768761,-0.131055,2.273400,1.228200,-0.439500,1
-1.439342,0.768761,-0.131055,2.273300,1.228100,-0.439600,1
-1.321662,0.768761,-0.131055,2.273300,1.227900,-0.439600,1
-1.321662,0.768761,-0.131055,2.273300,1.227800,-0.439600,1
-1.400115,0.768761,-0.131055,2.273400,1.227600,-0.439700,1
-1.400115,0.807987,-0.170281,2.273400,1.227500,-0.439700,1
-1.400115,0.847214,-0.248734,2.273400,1.227400,-0.439800,1
-1.439342,0.847214,-0.209508,2.273400,1.227200,-0.439800,1
-1.439342,0.847214,-0.209508,2.273400,1.227200,-0.439900,1
-1.400115,0.847214,-0.209508,2.273400,1.227100,-0.439900,1
-1.400115,0.847214,-0.209508,2.273500,1.227100,-0.440000,1
-1.400115,0.847214,-0.209508,2.273500,1.227000,-0.440000,1
-1.400115,0.807987,-0.209508,2.273400,1.227000,-0.440000,1
-1.439342,0.847214,-0.248734,2.273400,1.227000,-0.440100,1
-1.439342,0.807987,-0.287961,2.273400,1.226900,-0.440100,1
-1.439342,0.807987,-0.366415,2.273300,1.226900,-0.440100,1
-1.439342,0.807987,-0.366415,2.273200,1.226900,-0.440100,1
-1.439342,0.807987,-0.287961,2.273100,1.227000,-0.440200,1
-1.400115,0.807987,-0.248734,2.273000,1.227000,-0.440200,1
-1.400115,0.807987,-0.248734,2.272900,1.227000,-0.440200,1
-1.439342,0.807987,-0.327188,2.272900,1.227100,-0.440200,1
-1.439342,0.807987,-0.327188,2.272800,1.227100,-0.440200,1
-1.400115,0.768761,-0.327188,2.272700,1.227200,-0.440100,1
-1.439342,0.807987,-0.327188,2.272600,1.227300,-0.440200,1
-1.439342,0.807987,-0.327188,2.272500,1.227400,-0.440200,1
-1.400115,0.807987,-0.327188,2.272400,1.227500,-0.440200,1
-1.439342,0.807987,-0.287961,2.272300,1.227500,-0.440200,1
-1.439342,0.807987,-0.287961,2.272200,1.227600,-0.440200,1
-1.439342,0.847214,-0.248734,2.272100,1.227700,-0.440100,1
-1.400115,0.807987,-0.327188,2.272000,1.227800,-0.440100,1
-1.360889,0.768761,-0.287961,2.272000,1.227900,-0.440100,1
-1.360889,0.768761,-0.287961,2.271900,1.228000,-0.440100,1
-1.360889,0.768761,-0.248734,2.271800,1.228100,-0.440100,1
-1.360889,0.807987,-0.248734,2.271800,1.228100,-0.440100,1
-1.360889,0.807987,-0.209508,2.271700,1.228200,-0.440100,1
-1.360889,0.807987,-0.209508,2.271700,1.228300,-0.440100,1
-1.400115,0.807987,-0.209508,2.271600,1.228400,-0.440100,1
-1.360889,0.807987,-0.209508,2.271600,1.228500,-0.440000,1
-1.400115,0.807987,-0.209508,2.271600,1.228500,-0.440000,1
-1.400115,0.807987,-0.209508,2.271600,1.228600,-0.440000,1
-1.360889,0.768761,-0.209508,2.271500,1.228700,-0.440000,1
-1.400115,0.651081,-0.170281,2.271500,1.228700,-0.440000,1
-1.400115,0.651081,-0.170281,2.271500,1.228800,-0.440100,1
-1.400115,0.651081,-0.170281,2.271500,1.228900,-0.440000,1
-1.360889,0.651081,-0.131055,2.271500,1.228900,-0.440000,1
-1.439342,0.651081,-0.131055,2.271500,1.229000,-0.440000,1
-1.439342,0.651081,-0.131055,2.271500,1.229000,-0.440100,1
-1.439342,0.651081,-0.131055,2.271600,1.229000,-0.440100,1
-1.400115,0.729534,-0.170281,2.271500,1.229100,-0.440100,1
-1.400115,0.729534,-0.131055,2.271600,1.229100,-0.440200,1
-1.321662,0.729534,-0.131055,2.271600,1.229100,-0.440200,1
-1.321662,0.729534,-0.131055,2.271700,1.229200,-0.440200,1
-1.400115,0.729534,-0.131055,2.271700,1.229200,-0.440200,1
-1.400115,0.729534,-0.131055,2.271700,1.229200,-0.440300,1
-1.400115,0.729534,-0.131055,2.271800,1.229300,-0.440300,1
-1.439342,0.729534,-0.170281,2.271900,1.229300,-0.440300,1
-1.400115,0.729534,-0.170281,2.271900,1.229300,-0.440400,1
-1.360889,0.690307,-0.131055,2.272000,1.229300,-0.440400,1
-1.360889,0.690307,-0.131055,2.272100,1.229300,-0.440500,1
-1.360889,0.729534,-0.170281,2.272200,1.229300,-0.440500,1
-1.360889,0.690307,-0.170281,2.272300,1.229300,-0.440600,1
-1.360889,0.690307,-0.170281,2.272400,1.229400,-0.440600,1
-1.400115,0.729534,-0.170281,2.272400,1.229400,-0.440600,1
-1.400115,0.729534,-0.131055,2.272500,1.229400,-0.440700,1
-1.360889,0.729534,-0.170281,2.272500,1.229400,-0.440700,1
-1.360889,0.729534,-0.131055,2.272600,1.229500,-0.440700,1
-1.360889,0.729534,-0.131055,2.272600,1.229500,-0.440800,1
-1.360889,0.729534,-0.209508,2.272700,1.229500,-0.440800,1
-1.360889,0.729534,-0.091828,2.272700,1.229600,-0.440900,1
-1.321662,0.768761,-0.209508,2.272800,1.229600,-0.440900,1
-1.321662,0.768761,-0.209508,2.272800,1.229700,-0.440900,1
-1.321662,0.690307,-0.209508,2.272900,1.229700,-0.441000,1
-1.321662,0.690307,-0.209508,2.272900,1.229800,-0.441100,1
-1.243209,0.651081,-0.209508,2.273000,1.229900,-0.441100,1
-1.243209,0.651081,-0.209508,2.273000,1.229900,-0.441100,1
-1.243209,0.651081,-0.209508,2.273100,1.230100,-0.441200,1
-1.243209,0.651081,-0.170281,2.273100,1.230200,-0.441300,1
-1.321662,0.690307,-0.248734,2.273100,1.230300,-0.441300,1
-1.282436,0.729534,-0.248734,2.273100,1.230300,-0.441300,1
-1.203982,0.729534,-0.248734,2.273100,1.230400,-0.441400,1
-1.203982,0.729534,-0.248734,2.273100,1.230500,-0.441500,1
-1.203982,0.768761,-0.248734,2.273100,1.230600,-0.441500,1
-1.164756,0.807987,-0.170281,2.273200,1.230700,-0.441600,1
-1.203982,0.807987,-0.209508,2.273200,1.230800,-0.441600,1
-1.203982,0.807987,-0.209508,2.273200,1.231000,-0.441700,1
-1.203982,0.807987,-0.248734,2.273100,1.231100,-0.441700,1
-1.203982,0.847214,-0.248734,2.273100,1.231200,-0.441800,1
-1.203982,0.847214,-0.248734,2.273100,1.231300,-0.441800,1
-1.243209,0.847214,-0.209508,2.273100,1.231400,-0.441800,1
-1.203982,0.847214,-0.209508,2.273100,1.231500,-0.441900,1
-1.243209,0.847214,-0.209508,2.273000,1.231600,-0.441900,1
-1.282436,0.768761,-0.248734,2.273000,1.231700,-0.441900,1
-1.282436,0.807987,-0.248734,2.272900,1.231800,-0.442000,1
-1.282436,0.807987,-0.248734,2.272800,1.231900,-0.442000,1
-1.321662,0.768761,-0.248734,2.272700,1.231900,-0.442000,1
-1.360889,0.807987,-0.248734,2.272600,1.232000,-0.442000,1
-1.360889,0.807987,-0.248734,2.272500,1.232200,-0.442000,1
-1.360889,0.847214,-0.248734,2.272400,1.232200,-0.442000,1
-1.360889,0.847214,-0.248734,2.272300,1.232200,-0.442000,1
-1.321662,0.807987,-0.327188,2.272200,1.232300,-0.442000,1
-1.321662,0.807987,-0.248734,2.272100,1.232400,-0.442000,1
-1.321662,0.807987,-0.209508,2.272000,1.232500,-0.442000,1
-1.321662,0.807987,-0.209508,2.271900,1.232500,-0.442000,1
-1.400115,0.768761,-0.287961,2.271800,1.232600,-0.441900,1
-1.478569,0.847214,-0.248734,2.271700,1.232600,-0.441900,1
-1.439342,0.847214,-0.248734,2.271600,1.232700,-0.441900,1
-1.439342,0.847214,-0.248734,2.271500,1.232700,-0.441900,1
-1.400115,0.807987,-0.248734,2.271300,1.232800,-0.441900,1
-1.360889,0.729534,-0.287961,2.271200,1.232800,-0.441900,1
-1.360889,0.729534,-0.287961,2.271100,1.232900,-0.441900,1
-1.243209,0.651081,-0.327188,2.270900,1.232900,-0.441900,1
-1.125529,0.651081,-0.287961,2.270800,1.233000,-0.442000,1
-1.203982,0.925667,-0.248734,2.270600,1.233000,-0.442000,1
-1.282436,1.004120,-0.248734,2.270500,1.233000,-0.442000,1
-1.282436,1.043347,-0.209508,2.270300,1.233000,-0.442100,1
-1.282436,1.043347,-0.209508,2.270100,1.232900,-0.442100,1
-1.243209,1.043347,-0.170281,2.269900,1.233000,-0.442100,1
-1.243209,1.043347,-0.248734,2.269700,1.233000,-0.442200,1
-1.243209,1.043347,-0.248734,2.269500,1.233000,-0.442200,1
-1.282436,1.043347,-0.248734,2.269300,1.233100,-0.442400,1
-1.282436,1.004120,-0.248734,2.269000,1.233100,-0.442400,1
-1.243209,0.925667,-0.248734,2.268800,1.233100,-0.442500,1
-1.203982,0.886441,-0.248734,2.268600,1.233100,-0.442600,1
-1.203982,0.886441,-0.248734,2.268300,1.233100,-0.442700,1
-1.164756,0.886441,-0.209508,2.268000,1.233100,-0.442800,1
-1.125529,0.925667,-0.287961,2.267700,1.233000,-0.442800,1
-1.125529,0.925667,-0.287961,2.267300,1.233000,-0.442900,1
-1.164756,0.925667,-0.170281,2.267000,1.233000,-0.442900,1
-1.125529,0.964894,-0.209508,2.266800,1.233000,-0.443000,1
-1.125529,1.004120,-0.170281,2.266500,1.232900,-0.443000,1
-1.125529,1.004120,-0.170281,2.266200,1.232900,-0.443100,1
-1.125529,1.082574,-0.170281,2.266000,1.232800,-0.443100,1
-1.164756,1.082574,-0.170281,2.265800,1.232800,-0.443100,1
-1.164756,1.082574,-0.170281,2.265500,1.232700,-0.443100,1
-1.125529,1.082574,-0.209508,2.265300,1.232600,-0.443100,1
-1.164756,0.964894,-0.248734,2.265100,1.232500,-0.443100,1
-1.203982,0.886441,-0.248734,2.264900,1.232400,-0.443100,1
-1.164756,0.807987,-0.209508,2.264800,1.232400,-0.443200,1
-1.164756,0.807987,-0.209508,2.264600,1.232300,-0.443200,1
-1.125529,0.807987,-0.170281,2.264400,1.232300,-0.443200,1
-1.164756,0.807987,-0.209508,2.264300,1.232200,-0.443300,1
-1.164756,0.807987,-0.209508,2.264200,1.232200,-0.443300,1
-1.164756,0.847214,-0.248734,2.264100,1.232200,-0.443300,1
-1.164756,0.886441,-0.209508,2.264000,1.232100,-0.443400,1
-1.164756,0.886441,-0.209508,2.263900,1.232100,-0.443400,1
-1.203982,0.964894,-0.209508,2.263800,1.232100,-0.443500,1
-1.243209,0.925667,-0.209508,2.263700,1.232100,-0.443600,1
-1.243209,0.886441,-0.170281,2.263700,1.232100,-0.443600,1
-1.243209,0.886441,-0.170281,2.263600,1.232100,-0.443700,1
-1.203982,0.807987,-0.209508,2.263600,1.232000,-0.443700,1
-1.243209,0.807987,-0.327188,2.263600,1.232100,-0.443800,1
-1.243209,0.807987,-0.209508,2.263600,1.232100,-0.443900,1
-1.164756,0.847214,-0.287961,2.263600,1.232200,-0.444100,1
-1.164756,0.847214,-0.287961,2.263500,1.232100,-0.444100,1
-1.203982,0.847214,-0.170281,2.263600,1.232200,-0.444200,1
-1.243209,0.925667,-0.209508,2.263600,1.232200,-0.444300,1
-1.243209,0.925667,-0.209508,2.263600,1.232200,-0.444300,1
-1.243209,0.886441,-0.170281,2.263600,1.232200,-0.444400,1
-1.243209,0.925667,-0.248734,2.263600,1.232300,-0.444400,1
-1.282436,0.886441,-0.287961,2.263600,1.232300,-0.444500,1
-1.282436,0.886441,-0.248734,2.263700,1.232300,-0.444500,1
-1.282436,0.886441,-0.248734,2.263700,1.232300,-0.444500,1
-1.282436,0.847214,-0.209508,2.263800,1.232400,-0.444600,1
-1.203982,0.768761,-0.209508,2.263900,1.232400,-0.444500,1
-1.203982,0.768761,-0.209508,2.264000,1.232500,-0.444600,1
-1.203982,0.807987,-0.248734,2.264000,1.232600,-0.444700,1
-1.243209,0.886441,-0.248734,2.264200,1.232700,-0.444700,1
-1.243209,0.886441,-0.287961,2.264300,1.232800,-0.444700,1
-1.282436,0.925667,-0.248734,2.264400,1.232800,-0.444700,1
-1.282436,0.925667,-0.248734,2.264500,1.232900,-0.444700,1
-1.243209,0.964894,-0.248734,2.264600,1.233000,-0.444700,1
-1.203982,0.925667,-0.287961,2.264800,1.233000,-0.444800,1
-1.203982,0.925667,-0.287961,2.264900,1.233000,-0.444700,1
-1.203982,0.964894,-0.209508,2.265000,1.233100,-0.444700,1
-1.164756,0.964894,-0.209508,2.265100,1.233100,-0.444700,1
-1.164756,1.004120,-0.209508,2.265300,1.233200,-0.444700,1
-1.164756,1.004120,-0.209508,2.265400,1.233200,-0.444600,1
-1.243209,1.004120,-0.287961,2.265500,1.233300,-0.444600,1
-1.243209,0.964894,-0.248734,2.265600,1.233300,-0.444600,1
-1.203982,0.886441,-0.287961,2.265700,1.233400,-0.444600,1
-1.243209,0.847214,-0.287961,2.265900,1.233400,-0.444500,1
-1.243209,0.847214,-0.287961,2.266000,1.233500,-0.444500,1
-1.243209,0.807987,-0.327188,2.266100,1.233500,-0.444400,1
-1.203982,0.807987,-0.287961,2.266200,1.233500,-0.444400,1
-1.203982,0.807987,-0.287961,2.266300,1.233600,-0.444300,1
-1.203982,0.886441,-0.287961,2.266400,1.233600,-0.444300,1
-1.243209,0.886441,-0.287961,2.266400,1.233600,-0.444200,1
-1.282436,0.925667,-0.287961,2.266500,1.233600,-0.444100,1
-1.282436,0.925667,-0.287961,2.266600,1.233700,-0.444000,1
-1.282436,0.925667,-0.287961,2.266700,1.233700,-0.443900,1
-1.282436,0.925667,-0.287961,2.266800,1.233800,-0.443900,1
-1.282436,0.925667,-0.287961,2.266800,1.233800,-0.443800,1
-1.282436,0.925667,-0.287961,2.266900,1.233800,-0.443800,1
-1.321662,0.847214,-0.327188,2.267000,1.233900,-0.443800,1
-1.282436,0.886441,-0.287961,2.267100,1.233900,-0.443700,1
-1.282436,0.847214,-0.287961,2.267200,1.233900,-0.443700,1
-1.282436,0.847214,-0.287961,2.267200,1.233900,-0.443600,1
-1.243209,0.847214,-0.287961,2.267300,1.234000,-0.443600,1
-1.243209,0.847214,-0.248734,2.267300,1.234000,-0.443500,1
-1.243209,0.847214,-0.248734,2.267400,1.234000,-0.443500,1
-1.282436,0.886441,-0.248734,2.267400,1.234100,-0.443400,1
-1.282436,0.964894,-0.170281,2.267500,1.234000,-0.443300,1
-1.282436,0.964894,-0.170281,2.267500,1.234100,-0.443300,1
-1.243209,1.043347,-0.209508,2.267600,1.234000,-0.443300,1
-1.282436,1.082574,-0.209508,2.267700,1.234000,-0.443200,1
-1.282436,1.004120,-0.248734,2.267700,1.234100,-0.443200,1
-1.321662,0.886441,-0.248734,2.267800,1.234100,-0.443200,1
-1.321662,0.886441,-0.248734,2.267900,1.234100,-0.443100,1
-1.321662,0.768761,-0.287961,2.268000,1.234200,-0.443200,1
-1.360889,0.729534,-0.248734,2.268100,1.234100,-0.443100,1
-1.360889,0.729534,-0.248734,2.268200,1.234200,-0.443100,1
-1.360889,0.651081,-0.287961,2.268300,1.234200,-0.443000,1
-1.360889,0.690307,-0.287961,2.268400,1.234100,-0.443000,1
-1.400115,0.690307,-0.248734,2.268500,1.234200,-0.443000,1
-1.400115,0.690307,-0.248734,2.268500,1.234100,-0.442900,1
-1.400115,0.768761,-0.287961,2.268600,1.234100,-0.442900,1
-1.321662,0.807987,-0.287961,2.268700,1.234100,-0.442800,1
-1.321662,0.807987,-0.248734,2.268700,1.234100,-0.442800,1
-1.321662,0.807987,-0.248734,2.268700,1.234100,-0.442800,1
-1.282436,0.807987,-0.248734,2.268800,1.234100,-0.442700,1
-1.282436,0.807987,-0.327188,2.268900,1.234000,-0.442700,1
-1.282436,0.807987,-0.327188,2.269000,1.234000,-0.442700,1
-1.321662,0.768761,-0.327188,2.269000,1.234000,-0.442600,1
-1.282436,0.729534,-0.327188,2.269100,1.234000,-0.442700,1
-1.321662,0.768761,-0.366415,2.269100,1.233900,-0.442600,1
-1.321662,0.729534,-0.366415,2.269200,1.233900,-0.442600,1
-1.321662,0.729534,-0.366415,2.269200,1.233800,-0.442600,1
-1.360889,0.768761,-0.327188,2.269300,1.233800,-0.442500,1
-1.321662,0.768761,-0.248734,2.269300,1.233800,-0.442500,1
-1.321662,0.768761,-0.248734,2.269300,1.233700,-0.442500,1
-1.282436,0.847214,-0.287961,2.269400,1.233700,-0.442600,1
-1.321662,0.964894,-0.287961,2.269400,1.233600,-0.442600,1
-1.282436,1.043347,-0.209508,2.269600,1.233500,-0.442500,1
-1.282436,1.004120,-0.170281,2.269700,1.233500,-0.442600,1
-1.282436,1.004120,-0.170281,2.269700,1.233500,-0.442600,1
-1.321662,1.043347,-0.209508,2.269800,1.233400,-0.442600,1
-1.282436,0.964894,-0.131055,2.269900,1.233300,-0.442600,1
-1.282436,0.964894,-0.131055,2.269900,1.233400,-0.442700,1
-1.321662,1.004120,-0.209508,2.269900,1.233300,-0.442700,1
-1.321662,0.964894,-0.209508,2.269900,1.233200,-0.442600,1
-1.400115,0.925667,-0.248734,2.269900,1.233200,-0.442700,1
-1.400115,0.925667,-0.248734,2.269900,1.233100,-0.442700,1
-1.360889,0.847214,-0.248734,2.269800,1.233100,-0.442700,1
-1.439342,0.847214,-0.209508,2.269800,1.232900,-0.442700,1
-1.400115,0.925667,-0.209508,2.269700,1.232900,-0.442800,1
-1.400115,0.925667,-0.209508,2.269600,1.232800,-0.442800,1
-1.400115,1.043347,-0.170281,2.269600,1.232700,-0.442800,1
-1.400115,1.082574,-0.170281,2.269500,1.232600,-0.442800,1
-1.478569,1.121800,-0.170281,2.269400,1.232500,-0.442900,1
-1.478569,1.121800,-0.170281,2.269300,1.232400,-0.442900,1
-1.439342,1.082574,-0.170281,2.269200,1.232300,-0.442900,1
-1.400115,1.082574,-0.131055,2.269100,1.232200,-0.442900,1
-1.400115,1.082574,-0.131055,2.269000,1.232100,-0.442900,1
-1.400115,0.925667,-0.131055,2.268800,1.232000,-0.442900,1
-1.400115,0.847214,-0.170281,2.268700,1.231800,-0.442900,1
-1.400115,0.807987,-0.131055,2.268500,1.231700,-0.443000,1
-1.400115,0.768761,-0.170281,2.268400,1.231600,-0.443000,1
-1.400115,0.768761,-0.170281,2.268300,1.231500,-0.443000,1
-1.360889,0.729534,-0.170281,2.268200,1.231300,-0.443000,1
-1.321662,0.729534,-0.209508,2.268100,1.231200,-0.443000,1
-1.321662,0.729534,-0.209508,2.268100,1.231100,-0.443100,1
-1.282436,0.768761,-0.170281,2.268100,1.230900,-0.443000,1
-1.321662,0.847214,-0.170281,2.268000,1.230900,-0.443100,1
-1.282436,0.847214,-0.170281,2.267900,1.230800,-0.443100,1
-1.282436,0.847214,-0.170281,2.267800,1.230700,-0.443200,1
-1.282436,0.886441,-0.091828,2.267800,1.230600,-0.443200,1
-1.282436,0.886441,-0.170281,2.267800,1.230400,-0.443200,1
-1.282436,1.004120,-0.170281,2.267700,1.230400,-0.443200,1
-1.282436,1.043347,-0.131055,2.267700,1.230300,-0.443300,1
-1.282436,1.043347,-0.131055,2.267600,1.230200,-0.443300,1
-1.282436,1.043347,-0.131055,2.267500,1.230200,-0.443400,1
-1.282436,1.043347,-0.209508,2.267500,1.230100,-0.443400,1
-1.282436,1.043347,-0.209508,2.267500,1.230000,-0.443500,1
-1.243209,1.043347,-0.170281,2.267500,1.230000,-0.443500,1
-1.243209,1.043347,-0.209508,2.267600,1.230000,-0.443600,1
-1.243209,1.082574,-0.248734,2.267500,1.229900,-0.443700,1
-1.203982,1.082574,-0.248734,2.267500,1.229900,-0.443800,1
-1.203982,1.082574,-0.248734,2.267500,1.229900,-0.443900,1
-1.243209,1.004120,-0.248734,2.267500,1.229900,-0.444000,1
-1.282436,0.964894,-0.248734,2.267400,1.230000,-0.444100,1
-1.282436,0.964894,-0.248734,2.267300,1.229900,-0.444100,1
-1.282436,0.925667,-0.248734,2.267200,1.230000,-0.444200,1
-1.282436,0.886441,-0.287961,2.267100,1.230000,-0.444300,1
-1.321662,0.807987,-0.327188,2.267000,1.230000,-0.444300,1
-1.321662,0.807987,-0.327188,2.266800,1.230000,-0.444300,1
-1.282436,0.847214,-0.248734,2.266700,1.230000,-0.444300,1
-1.243209,0.886441,-0.327188,2.266600,1.230100,-0.444300,1
-1.282436,0.886441,-0.327188,2.266500,1.230100,-0.444400,1
-1.282436,0.886441,-0.327188,2.266400,1.230100,-0.444400,1
-1.243209,0.964894,-0.366415,2.266300,1.230200,-0.444400,1
-1.282436,0.925667,-0.327188,2.266100,1.230300,-0.444400,1
-1.282436,1.004120,-0.287961,2.266000,1.230300,-0.444400,1
-1.282436,1.004120,-0.287961,2.265900,1.230400,-0.444500,1
-1.321662,0.964894,-0.327188,2.265800,1.230400,-0.444500,1
-1.321662,0.925667,-0.327188,2.265800,1.230500,-0.444500,1
-1.321662,0.925667,-0.327188,2.265700,1.230500,-0.444500,1
-1.282436,0.886441,-0.327188,2.265700,1.230600,-0.444500,1
-1.321662,0.847214,-0.327188,2.265600,1.230700,-0.444500,1
-1.360889,0.807987,-0.327188,2.265600,1.230600,-0.444400,1
-1.282436,0.768761,-0.327188,2.265600,1.230700,-0.444500,1
-1.282436,0.768761,-0.327188,2.265500,1.230800,-0.444500,1
-1.243209,0.847214,-0.248734,2.265500,1.230900,-0.444500,1
-1.243209,0.925667,-0.209508,2.265400,1.230900,-0.444500,1
-1.243209,0.925667,-0.209508,2.265400,1.230900,-0.444500,1
-1.203982,1.004120,-0.248734,2.265300,1.231000,-0.444500,1
-1.243209,1.121800,-0.209508,2.265300,1.230900,-0.444400,1
-1.282436,1.239480,-0.209508,2.265200,1.231000,-0.444400,1
-1.282436,1.239480,-0.209508,2.265100,1.231100,-0.444400,1
-1.203982,1.200253,-0.170281,2.265100,1.231000,-0.444300,1
-1.203982,1.121800,-0.131055,2.265000,1.231000,-0.444400,1
-1.243209,1.121800,-0.170281,2.265000,1.231000,-0.444300,1
-1.243209,1.121800,-0.170281,2.265000,1.231000,-0.444300,1
-1.243209,1.043347,-0.248734,2.264900,1.231000,-0.444300,1
-1.282436,1.004120,-0.248734,2.264900,1.231000,-0.444300,1
-1.282436,0.925667,-0.209508,2.264800,1.231000,-0.444200,1
-1.282436,0.925667,-0.209508,2.264700,1.231000,-0.444200,1
-1.282436,0.964894,-0.209508,2.264600,1.231000,-0.444200,1
-1.282436,0.925667,-0.170281,2.264600,1.231000,-0.444200,1
-1.282436,1.004120,-0.248734,2.264500,1.231000,-0.444200,1
-1.282436,1.004120,-0.248734,2.264300,1.231000,-0.444100,1
-1.360889,1.004120,-0.248734,2.264200,1.231000,-0.444100,1
-1.321662,1.004120,-0.287961,2.264200,1.231000,-0.444000,1
-1.321662,1.004120,-0.287961,2.264100,1.231000,-0.444000,1
-1.282436,0.964894,-0.287961,2.264000,1.231000,-0.443900,1
-1.282436,0.964894,-0.248734,2.264000,1.231000,-0.443900,1
-1.282436,0.886441,-0.209508,2.263900,1.231000,-0.443800,1
-1.282436,0.886441,-0.209508,2.264000,1.231000,-0.443800,1
-1.243209,0.847214,-0.209508,2.263900,1.231100,-0.443800,1
-1.321662,0.886441,-0.248734,2.263900,1.231200,-0.443800,1
-1.321662,0.886441,-0.287961,2.264000,1.231200,-0.443700,1
-1.321662,0.886441,-0.287961,2.264000,1.231200,-0.443700,1
-1.360889,0.925667,-0.287961,2.264000,1.231200,-0.443600,1
-1.360889,0.964894,-0.248734,2.264000,1.231300,-0.443600,1
-1.400115,0.925667,-0.248734,2.264000,1.231300,-0.443600,1
-1.400115,0.925667,-0.248734,2.264000,1.231400,-0.443600,1
-1.321662,0.886441,-0.248734,2.264000,1.231400,-0.443500,1
-1.360889,0.847214,-0.287961,2.264100,1.231400,-0.443500,1
-1.360889,0.807987,-0.327188,2.264100,1.231500,-0.443500,1
-1.360889,0.807987,-0.366415,2.264100,1.231500,-0.443400,1
-1.360889,0.847214,-0.405642,2.264100,1.231600,-0.443400,1
-1.360889,0.847214,-0.405642,2.264100,1.231600,-0.443400,1
-1.360889,0.847214,-0.405642,2.264000,1.231700,-0.443400,1
-1.321662,0.925667,-0.405642,2.264000,1.231700,-0.443400,1
-1.360889,0.925667,-0.327188,2.264000,1.231700,-0.443300,1
-1.360889,0.964894,-0.327188,2.264000,1.231800,-0.443300,1
-1.360889,0.964894,-0.327188,2.264000,1.231900,-0.443400,1
-1.360889,1.004120,-0.366415,2.263900,1.231900,-0.443400,1
-1.321662,0.964894,-0.327188,2.263900,1.232000,-0.443400,1
-1.321662,0.964894,-0.327188,2.263800,1.232000,-0.443400,1
-1.243209,1.004120,-0.287961,2.263800,1.232100,-0.443400,1
-1.203982,1.043347,-0.287961,2.263800,1.232000,-0.443300,1
-1.203982,1.043347,-0.287961,2.263700,1.232100,-0.443400,1
-1.164756,1.082574,-0.209508,2.263700,1.232100,-0.443400,1
-1.243209,1.121800,-0.248734,2.263600,1.232100,-0.443400,1
-1.203982,0.925667,-0.248734,2.263500,1.232200,-0.443500,1
-1.282436,0.964894,-0.366415,2.263400,1.232200,-0.443500,1
-1.243209,0.886441,-0.327188,2.263300,1.232200,-0.443500,1
-1.203982,0.964894,-0.248734,2.263100,1.232200,-0.443600,1
-1.243209,0.964894,-0.327188,2.263100,1.232300,-0.443700,1
-1.243209,0.964894,-0.327188,2.262900,1.232300,-0.443700,1
-1.282436,1.043347,-0.248734,2.262900,1.232300,-0.443800,1
-1.243209,0.925667,-0.327188,2.262800,1.232200,-0.443800,1
-1.243209,0.925667,-0.327188,2.262700,1.232200,-0.443900,1
-1.125529,1.082574,-0.209508,2.262600,1.232200,-0.444000,1
-1.164756,1.004120,-0.248734,2.262500,1.232200,-0.444000,1
-1.164756,1.004120,-0.248734,2.262500,1.232200,-0.444100,1
-1.203982,1.004120,-0.209508,2.262500,1.232200,-0.444200,1
-1.243209,0.925667,-0.248734,2.262400,1.232200,-0.444300,1
-1.203982,0.886441,-0.287961,2.262400,1.232200,-0.444400,1
-1.203982,1.043347,-0.248734,2.262400,1.232200,-0.444400,1
-1.282436,1.004120,-0.209508,2.262400,1.232200,-0.444500,1
-1.282436,1.004120,-0.209508,2.262400,1.232300,-0.444600,1
-1.243209,1.043347,-0.209508,2.262400,1.232200,-0.444600,1
-1.203982,1.004120,-0.248734,2.262400,1.232200,-0.444700,1
-1.203982,1.004120,-0.248734,2.262400,1.232200,-0.444800,1
-1.321662,1.043347,-0.248734,2.262400,1.232200,-0.444800,1
-1.400115,1.004120,-0.248734,2.262400,1.232200,-0.444900,1
-1.360889,0.964894,-0.327188,2.262300,1.232200,-0.445000,1
-1.400115,0.964894,-0.287961,2.262300,1.232200,-0.445000,1
-1.400115,0.964894,-0.287961,2.262300,1.232200,-0.445100,1
-1.400115,0.886441,-0.287961,2.262300,1.232200,-0.445100,1
-1.321662,0.886441,-0.248734,2.262200,1.232200,-0.445200,1
-1.321662,0.886441,-0.248734,2.262200,1.232300,-0.445200,1
-1.282436,0.886441,-0.287961,2.262200,1.232300,-0.445300,1
-1.321662,0.886441,-0.248734,2.262100,1.232300,-0.445300,1
-1.321662,0.886441,-0.248734,2.262100,1.232300,-0.445400,1
-1.243209,0.886441,-0.248734,2.262100,1.232400,-0.445400,1
-1.282436,0.964894,-0.170281,2.262100,1.232300,-0.445400,1
-1.282436,0.964894,-0.170281,2.262000,1.232400,-0.445500,1
-1.282436,0.964894,-0.170281,2.262000,1.232500,-0.445600,1
-1.321662,1.004120,-0.170281,2.262000,1.232500,-0.445700,1
-1.400115,0.964894,-0.209508,2.262000,1.232500,-0.445700,1
-1.400115,0.964894,-0.170281,2.262000,1.232500,-0.445800,1
-1.400115,0.964894,-0.170281,2.262000,1.232500,-0.445800,1
-1.439342,0.964894,-0.209508,2.262000,1.232500,-0.445900,1
-1.360889,0.925667,-0.170281,2.262000,1.232500,-0.446000,1
-1.360889,0.925667,-0.170281,2.262000,1.232500,-0.446000,1
-1.360889,0.925667,-0.248734,2.261900,1.232600,-0.446100,1
-1.360889,0.925667,-0.248734,2.261900,1.232600,-0.446200,1
-1.478569,1.004120,-0.248734,2.261900,1.232500,-0.446200,1
-1.517795,0.768761,-0.327188,2.261900,1.232500,-0.446300,1
-1.478569,0.729534,-0.287961,2.261900,1.232500,-0.446400,1
-1.478569,0.729534,-0.287961,2.261900,1.232400,-0.446400,1
-1.400115,0.729534,-0.287961,2.261900,1.232400,-0.446500,1
-1.360889,0.807987,-0.287961,2.261900,1.232400,-0.446500,1
-1.360889,0.807987,-0.287961,2.261900,1.232300,-0.446600,1
-1.400115,0.768761,-0.209508,2.261900,1.232300,-0.446600,1
-1.360889,0.729534,-0.170281,2.261800,1.232300,-0.446700,1
-1.321662,0.768761,-0.170281,2.261900,1.232200,-0.446700,1
-1.360889,0.768761,-0.209508,2.261900,1.232200,-0.446800,1
-1.360889,0.768761,-0.209508,2.261800,1.232100,-0.446800,1
-1.282436,0.768761,-0.248734,2.261800,1.232100,-0.446900,1
-1.321662,0.768761,-0.287961,2.261800,1.232000,-0.446900,1
-1.321662,0.768761,-0.287961,2.261700,1.231900,-0.446900,1
-1.321662,0.807987,-0.287961,2.261700,1.231900,-0.446900,1
-1.282436,0.768761,-0.209508,2.261600,1.231800,-0.447000,1
-1.282436,0.807987,-0.248734,2.261600,1.231800,-0.447000,1
-1.360889,0.886441,-0.170281,2.261600,1.231700,-0.447000,1
-1.360889,0.886441,-0.170281,2.261600,1.231700,-0.447000,1
-1.360889,0.925667,-0.209508,2.261600,1.231600,-0.447000,1
-1.400115,0.964894,-0.209508,2.261600,1.231600,-0.447100,1
-1.400115,0.964894,-0.209508,2.261600,1.231600,-0.447100,1
-1.400115,0.925667,-0.209508,2.261700,1.231600,-0.447100,1
-1.400115,0.886441,-0.170281,2.261700,1.231500,-0.447100,1
-1.360889,0.768761,-0.209508,2.261700,1.231500,-0.447100,1
-1.360889,0.729534,-0.248734,2.261700,1.231500,-0.447100,1
-1.360889,0.729534,-0.248734,2.261700,1.231500,-0.447200,1
-1.360889,0.729534,-0.287961,2.261800,1.231300,-0.447200,1
-1.400115,0.690307,-0.248734,2.261800,1.231300,-0.447200,1
-1.400115,0.690307,-0.248734,2.261700,1.231300,-0.447300,1
-1.360889,0.768761,-0.248734,2.261800,1.231300,-0.447300,1
-1.360889,0.847214,-0.248734,2.261800,1.231300,-0.447300,1
-1.360889,0.847214,-0.209508,2.261800,1.231200,-0.447400,1
-1.360889,0.925667,-0.091828,2.261800,1.231300,-0.447400,1
-1.360889,0.925667,-0.091828,2.261800,1.231200,-0.447400,1
-1.360889,0.925667,-0.091828,2.261900,1.231200,-0.447400,1
-1.360889,0.886441,-0.131055,2.261900,1.231200,-0.447500,1
-1.282436,0.886441,-0.170281,2.262000,1.231200,-0.447500,1
-1.282436,0.886441,-0.170281,2.262000,1.231200,-0.447600,1
-1.282436,0.886441,-0.170281,2.262000,1.231200,-0.447600,1
-1.243209,0.807987,-0.209508,2.262100,1.231200,-0.447600,1
-1.243209,0.807987,-0.209508,2.262200,1.231200,-0.447700,1
-1.321662,0.847214,-0.209508,2.262200,1.231200,-0.447700,1
-1.321662,0.807987,-0.170281,2.262300,1.231300,-0.447800,1
-1.321662,0.807987,-0.170281,2.262300,1.231300,-0.448000,1
-1.282436,0.768761,-0.091828,2.262400,1.231300,-0.448000,1
-1.243209,0.807987,-0.091828,2.262500,1.231400,-0.448100,1
-1.243209,0.768761,-0.091828,2.262500,1.231400,-0.448100,1
-1.243209,0.807987,-0.131055,2.262600,1.231400,-0.448200,1
-1.243209,0.807987,-0.131055,2.262600,1.231400,-0.448200,1
-1.203982,0.886441,-0.091828,2.262600,1.231400,-0.448200,1
-1.243209,0.847214,-0.131055,2.262700,1.231400,-0.448300,1
-1.243209,0.847214,-0.131055,2.262800,1.231400,-0.448200,1
-1.243209,0.886441,-0.170281,2.262800,1.231300,-0.448200,1
-1.203982,0.847214,-0.131055,2.262800,1.231400,-0.448300,1
-1.203982,0.847214,-0.131055,2.262800,1.231400,-0.448300,1
-1.164756,0.886441,-0.131055,2.262800,1.231400,-0.448400,1
-1.203982,0.886441,-0.170281,2.262900,1.231300,-0.448400,1
-1.203982,0.807987,-0.131055,2.262900,1.231300,-0.448400,1
-1.243209,0.768761,-0.170281,2.262900,1.231300,-0.448400,1
-1.243209,0.768761,-0.170281,2.262800,1.231200,-0.448500,1
-1.164756,0.768761,-0.248734,2.262800,1.231200,-0.448500,1
-1.164756,0.807987,-0.248734,2.262800,1.231200,-0.448500,1
-1.164756,0.807987,-0.248734,2.262800,1.231100,-0.448500,1
-1.164756,0.768761,-0.248734,2.262800,1.231200,-0.448500,1
-1.203982,0.807987,-0.209508,2.262800,1.231100,-0.448600,1
-1.203982,0.847214,-0.209508,2.262700,1.231000,-0.448600,1
-1.203982,0.847214,-0.209508,2.262700,1.231000,-0.448600,1
-1.282436,0.807987,-0.209508,2.262700,1.231000,-0.448500,1
-1.243209,0.768761,-0.209508,2.262700,1.230900,-0.448500,1
-1.203982,0.768761,-0.248734,2.262700,1.230900,-0.448600,1
-1.164756,0.690307,-0.287961,2.262700,1.230900,-0.448600,1
-1.164756,0.690307,-0.287961,2.262700,1.230900,-0.448600,1
-1.086303,0.690307,-0.209508,2.262700,1.230800,-0.448600,1
-1.125529,0.690307,-0.248734,2.262700,1.230800,-0.448500,1
-1.125529,0.690307,-0.248734,2.262800,1.230800,-0.448600,1
-1.203982,0.729534,-0.287961,2.262800,1.230800,-0.448600,1
-1.203982,0.729534,-0.366415,2.262800,1.230700,-0.448500,1
-1.243209,0.768761,-0.287961,2.262800,1.230800,-0.448600,1
-1.243209,0.768761,-0.248734,2.262800,1.230700,-0.448600,1
-1.243209,0.768761,-0.248734,2.262800,1.230700,-0.448600,1
-1.243209,0.768761,-0.170281,2.262800,1.230700,-0.448600,1
-1.243209,0.768761,-0.170281,2.262800,1.230700,-0.448700,1
-1.243209,0.768761,-0.170281,2.262800,1.230600,-0.448700,1
-1.243209,0.729534,-0.209508,2.262900,1.230600,-0.448700,1
-1.243209,0.729534,-0.209508,2.262900,1.230700,-0.448800,1
-1.243209,0.729534,-0.248734,2.262900,1.230600,-0.448700,1
-1.243209,0.729534,-0.248734,2.263000,1.230600,-0.448800,1
-1.243209,0.729534,-0.248734,2.263000,1.230700,-0.448800,1
-1.243209,0.768761,-0.248734,2.263100,1.230600,-0.448800,1
-1.164756,0.768761,-0.170281,2.263100,1.230700,-0.448900,1
-1.164756,0.768761,-0.170281,2.263200,1.230700,-0.448900,1
-1.164756,0.807987,-0.170281,2.263200,1.230700,-0.448900,1
-1.164756,0.847214,-0.209508,2.263300,1.230700,-0.448900,1
-1.203982,0.886441,-0.248734,2.263300,1.230800,-0.449000,1
-1.203982,0.886441,-0.248734,2.263300,1.230800,-0.449000,1
-1.203982,0.847214,-0.209508,2.263400,1.230900,-0.449000,1
-1.203982,0.847214,-0.209508,2.263400,1.231000,-0.449000,1
-1.203982,0.847214,-0.209508,2.263500,1.231100,-0.449100,1
-1.282436,0.847214,-0.248734,2.263500,1.231000,-0.449000,1
-1.321662,0.807987,-0.248734,2.263600,1.231100,-0.449000,1
-1.360889,0.847214,-0.248734,2.263600,1.231200,-0.449000,1
-1.360889,0.807987,-0.209508,2.263600,1.231300,-0.449000,1
-1.360889,0.807987,-0.209508,2.263800,1.231300,-0.449000,1
-1.243209,0.729534,-0.209508,2.263800,1.231400,-0.449000,1
-1.243209,0.690307,-0.248734,2.263900,1.231500,-0.449000,1
-1.243209,0.729534,-0.209508,2.264000,1.231500,-0.449000,1
-1.243209,0.729534,-0.209508,2.264000,1.231600,-0.448900,1
-1.243209,0.807987,-0.209508,2.264100,1.231700,-0.448900,1
-1.243209,0.886441,-0.209508,2.264100,1.231800,-0.448900,1
-1.243209,0.886441,-0.209508,2.264200,1.231900,-0.448800,1
-1.203982,0.886441,-0.209508,2.264200,1.232000,-0.448800,1
-1.243209,0.925667,-0.209508,2.264400,1.232000,-0.448700,1
-1.282436,0.964894,-0.248734,2.264400,1.232100,-0.448700,1
-1.243209,0.964894,-0.248734,2.264400,1.232100,-0.448600,1
-1.243209,0.964894,-0.248734,2.264500,1.232200,-0.448600,1
-1.243209,0.925667,-0.287961,2.264500,1.232200,-0.448500,1
-1.243209,0.807987,-0.170281,2.264600,1.232300,-0.448500,1
-1.243209,0.729534,-0.170281,2.264600,1.232300,-0.448400,1
-1.243209,0.729534,-0.170281,2.264600,1.232400,-0.448300,1
-1.203982,0.729534,-0.248734,2.264600,1.232500,-0.448300,1
-1.282436,0.768761,-0.248734,2.264700,1.232400,-0.448100,1
-1.282436,0.807987,-0.170281,2.264600,1.232400,-0.448000,1
-1.282436,0.807987,-0.170281,2.264700,1.232400,-0.448000,1
-1.282436,0.847214,-0.209508,2.264700,1.232400,-0.447900,1
-1.243209,0.847214,-0.131055,2.264600,1.232500,-0.447800,1
-1.243209,0.847214,-0.209508,2.264700,1.232500,-0.447700,1
-1.243209,0.847214,-0.209508,2.264700,1.232500,-0.447600,1
-1.243209,0.768761,-0.170281,2.264700,1.232400,-0.447500,1
-1.203982,0.768761,-0.170281,2.264700,1.232400,-0.447400,1
-1.243209,0.768761,-0.131055,2.264600,1.232400,-0.447300,1
-1.243209,0.768761,-0.131055,2.264600,1.232500,-0.447200,1
-1.203982,0.729534,-0.209508,2.264600,1.232400,-0.447100,1
-1.243209,0.768761,-0.287961,2.264500,1.232500,-0.447100,1
-1.203982,0.768761,-0.327188,2.264500,1.232400,-0.447000,1
-1.203982,0.768761,-0.327188,2.264400,1.232400,-0.446900,1
-1.321662,0.847214,-0.287961,2.264400,1.232400,-0.446800,1
-1.243209,0.925667,-0.287961,2.264400,1.232300,-0.446700,1
-1.243209,0.925667,-0.287961,2.264300,1.232300,-0.446700,1
-1.243209,0.925667,-0.287961,2.264300,1.232300,-0.446500,1
-1.282436,0.886441,-0.209508,2.264300,1.232200,-0.446500,1
-1.243209,0.886441,-0.131055,2.264200,1.232200,-0.446400,1
-1.243209,0.886441,-0.131055,2.264300,1.232200,-0.446300,1
-1.203982,0.807987,-0.091828,2.264200,1.232100,-0.446300,1
-1.243209,0.768761,-0.091828,2.264200,1.232100,-0.446200,1
-1.282436,0.847214,-0.091828,2.264200,1.232000,-0.446100,1
-1.243209,0.847214,-0.091828,2.264100,1.232000,-0.446000,1
-1.243209,0.847214,-0.091828,2.264100,1.231900,-0.446000,1
-1.203982,0.925667,-0.170281,2.264000,1.231900,-0.446000,1
-1.243209,0.964894,-0.091828,2.263900,1.231900,-0.445900,1
-1.243209,0.964894,-0.091828,2.263900,1.231800,-0.445800,1
-1.243209,0.925667,-0.131055,2.263800,1.231800,-0.445800,1
-1.282436,0.886441,-0.131055,2.263800,1.231700,-0.445700,1
-1.282436,0.847214,-0.170281,2.263800,1.231700,-0.445700,1
-1.282436,0.807987,-0.131055,2.263700,1.231700,-0.445800,1
-1.282436,0.807987,-0.131055,2.263700,1.231700,-0.445700,1
-1.282436,0.807987,-0.131055,2.263600,1.231600,-0.445700,1
-1.282436,0.807987,-0.091828,2.263700,1.231500,-0.445600,1
-1.282436,0.807987,-0.091828,2.263700,1.231500,-0.445600,1
-1.282436,0.847214,-0.091828,2.263600,1.231500,-0.445600,1
-1.243209,0.886441,-0.170281,2.263600,1.231400,-0.445600,1
-1.243209,0.925667,-0.209508,2.263600,1.231400,-0.445500,1
-1.243209,0.925667,-0.209508,2.263500,1.231400,-0.445500,1
-1.203982,0.964894,-0.209508,2.263500,1.231300,-0.445500,1
-1.243209,0.964894,-0.131055,2.263400,1.231300,-0.445400,1
-1.203982,0.964894,-0.209508,2.263400,1.231300,-0.445400,1
-1.164756,0.964894,-0.170281,2.263300,1.231300,-0.445400,1
-1.164756,0.964894,-0.170281,2.263300,1.231200,-0.445300,1
-1.203982,1.004120,-0.248734,2.263200,1.231200,-0.445300,1
-1.243209,0.964894,-0.248734,2.263200,1.231200,-0.445300,1
-1.243209,0.964894,-0.248734,2.263100,1.231200,-0.445200,1
-1.203982,0.964894,-0.248734,2.263000,1.231200,-0.445200,1
-1.164756,1.004120,-0.248734,2.262900,1.231100,-0.445100,1
-1.164756,1.004120,-0.287961,2.262900,1.231100,-0.445100,1
-1.164756,1.004120,-0.287961,2.262800,1.231000,-0.445000,1
-1.086303,0.925667,-0.287961,2.262700,1.231100,-0.444900,1
-1.086303,0.886441,-0.209508,2.262600,1.231100,-0.444900,1
-1.086303,0.886441,-0.209508,2.262500,1.231000,-0.444900,1
-1.086303,0.807987,-0.209508,2.262400,1.231000,-0.444900,1
-1.164756,0.886441,-0.248734,2.262400,1.230900,-0.444800,1
-1.203982,0.847214,-0.248734,2.262300,1.230900,-0.444800,1
-1.164756,0.768761,-0.327188,2.262200,1.230900,-0.444800,1
-1.164756,0.768761,-0.327188,2.262100,1.230800,-0.444700,1
-1.203982,0.768761,-0.327188,2.262000,1.230800,-0.444700,1
-1.203982,0.768761,-0.287961,2.261900,1.230800,-0.444700,1
-1.203982,0.768761,-0.327188,2.261800,1.230800,-0.444600,1
-1.203982,0.768761,-0.327188,2.261800,1.230700,-0.444600,1
-1.243209,0.847214,-0.287961,2.261700,1.230800,-0.444600,1
-1.243209,0.886441,-0.287961,2.261600,1.230800,-0.444600,1
-1.243209,0.964894,-0.287961,2.261600,1.230800,-0.444500,1
-1.243209,0.964894,-0.287961,2.261400,1.230800,-0.444500,1
-1.243209,0.925667,-0.366415,2.261400,1.230800,-0.444500,1
-1.243209,0.925667,-0.327188,2.261300,1.230800,-0.444500,1
-1.203982,0.925667,-0.287961,2.261200,1.230900,-0.444400,1
-1.203982,0.925667,-0.287961,2.261000,1.230900,-0.444400,1
-1.203982,0.925667,-0.248734,2.260900,1.231000,-0.444400,1
-1.164756,0.886441,-0.248734,2.260800,1.231100,-0.444400,1
-1.125529,0.847214,-0.248734,2.260700,1.231100,-0.444300,1
-1.203982,0.886441,-0.327188,2.260600,1.231200,-0.444300,1
-1.203982,0.886441,-0.327188,2.260500,1.231300,-0.444300,1
-1.203982,0.847214,-0.327188,2.260400,1.231400,-0.444300,1
-1.203982,0.847214,-0.327188,2.260300,1.231500,-0.444300,1
-1.203982,0.847214,-0.327188,2.260200,1.231500,-0.444300,1
-1.282436,0.847214,-0.287961,2.260200,1.231500,-0.444200,1
-1.243209,0.768761,-0.327188,2.260200,1.231600,-0.444200,1
-1.243209,0.768761,-0.327188,2.260100,1.231700,-0.444200,1
-1.243209,0.807987,-0.287961,2.260100,1.231800,-0.444100,1
-1.243209,0.807987,-0.209508,2.260100,1.231900,-0.444100,1
-1.164756,0.768761,-0.170281,2.260000,1.232100,-0.444100,1
-1.125529,0.768761,-0.170281,2.260000,1.232100,-0.444100,1
-1.125529,0.768761,-0.170281,2.260000,1.232200,-0.444100,1
-1.086303,0.690307,-0.170281,2.260000,1.232300,-0.444000,1
-1.125529,0.690307,-0.131055,2.260000,1.232400,-0.444000,1
-1.164756,0.651081,-0.209508,2.260000,1.232500,-0.444000,1
-1.164756,0.651081,-0.209508,2.260000,1.232600,-0.443900,1
-1.203982,0.729534,-0.248734,2.260000,1.232600,-0.443900,1
-1.243209,0.729534,-0.209508,2.260100,1.232700,-0.443800,1
-1.321662,0.768761,-0.209508,2.260100,1.232700,-0.443700,1
-1.321662,0.768761,-0.209508,2.260100,1.232800,-0.443600,1
-1.321662,0.768761,-0.131055,2.260100,1.232900,-0.443600,1
-1.282436,0.768761,-0.091828,2.260000,1.232900,-0.443500,1
-1.282436,0.768761,-0.052602,2.260000,1.233000,-0.443500,1
-1.282436,0.768761,-0.052602,2.260000,1.233000,-0.443400,1
-1.282436,0.690307,-0.131055,2.260000,1.233000,-0.443300,1
-1.321662,0.690307,-0.170281,2.260000,1.233000,-0.443200,1
-1.321662,0.729534,-0.170281,2.260000,1.233100,-0.443200,1
-1.321662,0.729534,-0.170281,2.260100,1.233100,-0.443100,1
-1.321662,0.807987,-0.131055,2.260100,1.233200,-0.443100,1
-1.360889,0.847214,-0.131055,2.260200,1.233200,-0.443000,1
-1.360889,0.847214,-0.131055,2.260200,1.233100,-0.443000,1
-1.282436,0.925667,-0.131055,2.260300,1.233100,-0.442900,1
-1.282436,0.964894,-0.091828,2.260400,1.233200,-0.442800,1
-1.243209,0.964894,-0.131055,2.260500,1.233100,-0.442700,1
-1.243209,0.964894,-0.131055,2.260600,1.233100,-0.442600,1
-1.243209,0.964894,-0.091828,2.260600,1.233100,-0.442600,1
-1.243209,1.004120,-0.091828,2.260700,1.233100,-0.442600,1
-1.203982,0.925667,-0.091828,2.260800,1.233000,-0.442500,1
-1.243209,0.886441,-0.170281,2.260800,1.233000,-0.442400,1
-1.243209,0.886441,-0.170281,2.260900,1.232900,-0.442300,1
-1.321662,0.886441,-0.209508,2.261000,1.232900,-0.442300,1
-1.321662,0.886441,-0.170281,2.261100,1.232800,-0.442200,1
-1.321662,0.886441,-0.170281,2.261200,1.232900,-0.442200,1
-1.321662,0.886441,-0.170281,2.261200,1.232800,-0.442000,1
-1.321662,0.925667,-0.209508,2.261300,1.232800,-0.441900,1
-1.282436,0.964894,-0.131055,2.261300,1.232700,-0.441800,1
-1.282436,0.964894,-0.131055,2.261300,1.232700,-0.441700,1
-1.243209,0.964894,-0.248734,2.261400,1.232600,-0.441500,1
-1.321662,0.964894,-0.287961,2.261400,1.232500,-0.441300,1
-1.321662,0.964894,-0.287961,2.261400,1.232500,-0.441300,1
-1.400115,0.964894,-0.248734,2.261400,1.232500,-0.441100,1
-1.400115,0.964894,-0.209508,2.261400,1.232300,-0.440900,1
-1.360889,0.768761,-0.209508,2.261400,1.232300,-0.440800,1
-1.321662,0.768761,-0.209508,2.261400,1.232200,-0.440600,1
-1.321662,0.768761,-0.209508,2.261400,1.232200,-0.440400,1
-1.360889,0.729534,-0.287961,2.261300,1.232200,-0.440300,1
-1.400115,0.651081,-0.287961,2.261300,1.232200,-0.440100,1
-1.478569,0.611854,-0.366415,2.261300,1.232300,-0.439900,1
-1.478569,0.611854,-0.366415,2.261300,1.232300,-0.439700,1
-1.557022,0.611854,-0.327188,2.261300,1.232300,-0.439500,1
-1.557022,0.651081,-0.366415,2.261200,1.232300,-0.439400,1
-1.557022,0.690307,-0.405642,2.261300,1.232300,-0.439200,1
-1.557022,0.690307,-0.405642,2.261300,1.232400,-0.439000,1
-1.596249,0.690307,-0.405642,2.261300,1.232400,-0.438800,1
-1.596249,0.729534,-0.444867,2.261400,1.232500,-0.438700,1
-1.596249,0.690307,-0.484094,2.261500,1.232600,-0.438500,1
-1.557022,0.572628,-0.484094,2.261600,1.232600,-0.438300,1
-1.557022,0.572628,-0.484094,2.261600,1.232700,-0.438100,1
-1.517795,0.494174,-0.523321,2.261800,1.232700,-0.437900,1
-1.517795,0.376495,-0.562548,2.261900,1.232800,-0.437700,1
-1.517795,0.376495,-0.562548,2.262100,1.232900,-0.437500,1
-1.557022,0.298042,-0.523321,2.262200,1.233000,-0.437300,1
-1.557022,0.258815,-0.523321,2.262400,1.233100,-0.437100,1
-1.557022,0.298042,-0.405642,2.262600,1.233200,-0.436900,1
-1.557022,0.376495,-0.366415,2.262800,1.233300,-0.436700,1
-1.557022,0.376495,-0.366415,2.263000,1.233400,-0.436400,1
-1.557022,0.454948,-0.366415,2.263300,1.233500,-0.436200,1
-1.596249,0.376495,-0.366415,2.263600,1.233600,-0.436000,1
-1.596249,0.376495,-0.366415,2.263900,1.233700,-0.435800,1
-1.557022,0.376495,-0.366415,2.264200,1.233900,-0.435600,1
-1.557022,0.376495,-0.327188,2.264500,1.233900,-0.435400,1
-1.557022,0.376495,-0.327188,2.264800,1.234000,-0.435200,1
-1.557022,0.415721,-0.327188,2.265100,1.234100,-0.435000,1
-1.517795,0.454948,-0.287961,2.265500,1.234200,-0.434800,1
-1.557022,0.494174,-0.209508,2.265800,1.234300,-0.434600,1
-1.557022,0.494174,-0.209508,2.266100,1.234400,-0.434400,1
-1.557022,0.533401,-0.209508,2.266400,1.234400,-0.434200,1
-1.517795,0.572628,-0.170281,2.266700,1.234500,-0.434000,1
-1.557022,0.651081,-0.131055,2.267100,1.234500,-0.433800,1
-1.557022,0.651081,-0.170281,2.267400,1.234600,-0.433700,1
-1.557022,0.651081,-0.170281,2.267700,1.234600,-0.433600,1
-1.596249,0.611854,-0.091828,2.268100,1.234600,-0.433500,1
-1.478569,0.611854,-0.052602,2.268500,1.234600,-0.433300,1
-1.478569,0.611854,-0.052602,2.268800,1.234500,-0.433200,1
-1.517795,0.651081,0.000000,2.269200,1.234400,-0.433200,1
-1.517795,0.651081,0.000000,2.269500,1.234300,-0.433100,1
-1.517795,0.651081,0.000000,2.269800,1.234200,-0.433000,1
-1.517795,0.651081,0.000000,2.270000,1.234100,-0.432900,1
-1.517795,0.651081,0.000000,2.270300,1.234000,-0.432800,1
-1.596249,0.651081,0.000000,2.270500,1.233800,-0.432700,1
-1.596249,0.651081,-0.052602,2.270700,1.233700,-0.432600,1
-1.635475,0.690307,-0.091828,2.271000,1.233500,-0.432500,1
-1.674702,0.690307,-0.131055,2.271200,1.233300,-0.432400,1
-1.674702,0.690307,-0.131055,2.271300,1.233100,-0.432300,1
-1.674702,0.651081,-0.131055,2.271500,1.232900,-0.432200,1
-1.674702,0.651081,-0.091828,2.271600,1.232600,-0.432100,1
-1.674702,0.651081,-0.091828,2.271700,1.232400,-0.432100,1
-1.635475,0.611854,-0.091828,2.271800,1.232200,-0.432000,1
-1.674702,0.611854,-0.091828,2.272000,1.231900,-0.431900,1
-1.635475,0.611854,-0.131055,2.272100,1.231700,-0.431800,1
-1.635475,0.611854,-0.131055,2.272100,1.231400,-0.431800,1
-1.557022,0.533401,-0.091828,2.272300,1.231100,-0.431600,1
-1.517795,0.533401,-0.209508,2.272300,1.230900,-0.431600,1
-1.517795,0.533401,-0.209508,2.272500,1.230600,-0.431500,1
-1.557022,0.572628,-0.091828,2.272600,1.230300,-0.431400,1
-1.478569,0.651081,-0.170281,2.272600,1.230100,-0.431300,1
-1.517795,0.572628,-0.170281,2.272700,1.229800,-0.431200,1
-1.557022,0.611854,-0.170281,2.272700,1.229600,-0.431200,1
-1.557022,0.611854,-0.170281,2.272800,1.229400,-0.431100,1
-1.557022,0.611854,-0.091828,2.272800,1.229100,-0.431000,1
-1.517795,0.611854,-0.052602,2.272900,1.228900,-0.430900,1
-1.517795,0.611854,-0.052602,2.272900,1.228700,-0.430800,1
-1.439342,0.611854,-0.131055,2.273000,1.228500,-0.430800,1
-1.557022,0.611854,-0.131055,2.273000,1.228300,-0.430700,1
-1.557022,0.611854,-0.091828,2.273000,1.228200,-0.430600,1
-1.557022,0.611854,-0.091828,2.273100,1.228000,-0.430500,1
-1.557022,0.611854,-0.091828,2.273100,1.227900,-0.430500,1
-1.596249,0.611854,-0.131055,2.273200,1.227700,-0.430400,1
-1.635475,0.651081,-0.091828,2.273100,1.227700,-0.430400,1
-1.635475,0.651081,-0.091828,2.273200,1.227500,-0.430400,1
-1.596249,0.690307,-0.052602,2.273200,1.227400,-0.430400,1
-1.557022,0.690307,-0.052602,2.273200,1.227200,-0.430300,1
-1.557022,0.651081,-0.170281,2.273200,1.227100,-0.430300,1
-1.596249,0.690307,-0.170281,2.273200,1.227100,-0.430300,1
-1.596249,0.690307,-0.170281,2.273200,1.226900,-0.430300,1
-1.596249,0.651081,-0.170281,2.273300,1.226800,-0.430300,1
-1.635475,0.651081,-0.131055,2.273200,1.226800,-0.430300,1
-1.635475,0.651081,-0.131055,2.273100,1.226700,-0.430200,1
-1.635475,0.611854,-0.131055,2.273100,1.226600,-0.430200,1
-1.596249,0.572628,-0.170281,2.273100,1.226500,-0.430100,1
-1.596249,0.611854,-0.209508,2.273100,1.226400,-0.430100,1
-1.596249,0.611854,-0.209508,2.273100,1.226400,-0.430100,1
-1.635475,0.572628,-0.209508,2.273100,1.226300,-0.430000,1
-1.635475,0.611854,-0.248734,2.273000,1.226300,-0.430000,1
-1.635475,0.611854,-0.248734,2.273000,1.226200,-0.429900,1
-1.674702,0.533401,-0.209508,2.273000,1.226200,-0.429800,1
-1.674702,0.494174,-0.248734,2.272900,1.226100,-0.429800,1
-1.674702,0.454948,-0.287961,2.272900,1.226100,-0.429700,1
-1.635475,0.454948,-0.287961,2.272900,1.226100,-0.429600,1
-1.635475,0.454948,-0.287961,2.272900,1.226000,-0.429600,1
-1.635475,0.533401,-0.287961,2.272900,1.226000,-0.429500,1
-1.596249,0.533401,-0.287961,2.272900,1.226000,-0.429500,1
-1.596249,0.533401,-0.287961,2.272900,1.226100,-0.429400,1
-1.635475,0.572628,-0.327188,2.272900,1.226100,-0.429300,1
-1.635475,0.611854,-0.287961,2.272900,1.226100,-0.429300,1
-1.635475,0.611854,-0.248734,2.272900,1.226100,-0.429300,1
-1.635475,0.611854,-0.248734,2.273000,1.226200,-0.429200,1
-1.635475,0.611854,-0.327188,2.273100,1.226200,-0.429100,1
-1.635475,0.611854,-0.287961,2.273000,1.226200,-0.429100,1
-1.674702,0.572628,-0.287961,2.273100,1.226300,-0.429000,1
-1.674702,0.611854,-0.287961,2.273100,1.226300,-0.429000,1
-1.674702,0.611854,-0.287961,2.273200,1.226300,-0.428900,1
-1.596249,0.572628,-0.248734,2.273100,1.226400,-0.428900,1
-1.635475,0.572628,-0.287961,2.273200,1.226400,-0.428900,1
-1.635475,0.572628,-0.287961,2.273200,1.226500,-0.428800,1
-1.635475,0.611854,-0.287961,2.273200,1.226500,-0.428800,1
-1.635475,0.651081,-0.287961,2.273300,1.226500,-0.428700,1
-1.635475,0.651081,-0.287961,2.273300,1.226600,-0.428600,1
-1.635475,0.651081,-0.287961,2.273300,1.226600,-0.428600,1
-1.674702,0.651081,-0.248734,2.273200,1.226600,-0.428600,1
-1.635475,0.572628,-0.287961,2.273300,1.226600,-0.428500,1
-1.674702,0.572628,-0.287961,2.273300,1.226600,-0.428500,1
-1.674702,0.572628,-0.287961,2.273200,1.226600,-0.428500,1
-1.635475,0.572628,-0.327188,2.273200,1.226600,-0.428500,1
-1.635475,0.533401,-0.209508,2.273300,1.226500,-0.428400,1
-1.635475,0.611854,-0.209508,2.273300,1.226500,-0.428400,1
-1.635475,0.611854,-0.209508,2.273300,1.226400,-0.428400,1
-1.635475,0.690307,-0.091828,2.273300,1.226400,-0.428400,1
-1.635475,0.690307,-0.091828,2.273300,1.226300,-0.428400,1
-1.674702,0.729534,-0.131055,2.273300,1.226300,-0.428300,1
-1.713928,0.729534,-0.131055,2.273300,1.226200,-0.428300,1
-1.713928,0.729534,-0.131055,2.273300,1.226100,-0.428300,1
-1.753155,0.611854,-0.131055,2.273400,1.226000,-0.428300,1
-1.753155,0.533401,-0.170281,2.273500,1.226000,-0.428300,1
-1.753155,0.454948,-0.209508,2.273500,1.225900,-0.428300,1
-1.753155,0.415721,-0.209508,2.273500,1.225700,-0.428400,1
-1.753155,0.415721,-0.209508,2.273600,1.225600,-0.428400,1
-1.753155,0.415721,-0.209508,2.273700,1.225600,-0.428300,1
-1.713928,0.494174,-0.131055,2.273700,1.225500,-0.428400,1
-1.753155,0.572628,-0.170281,2.273800,1.225300,-0.428400,1
-1.753155,0.572628,-0.170281,2.273800,1.225200,-0.428400,1
-1.713928,0.572628,-0.248734,2.273800,1.225100,-0.428400,1
-1.753155,0.651081,-0.248734,2.273900,1.225000,-0.428400,1
-1.753155,0.651081,-0.248734,2.274000,1.224900,-0.428400,1
-1.713928,0.611854,-0.209508,2.274100,1.224800,-0.428400,1
-1.674702,0.572628,-0.209508,2.274300,1.224700,-0.428300,1
-1.674702,0.572628,-0.209508,2.274400,1.224600,-0.428400,1
-1.674702,0.611854,-0.209508,2.274400,1.224600,-0.428400,1
-1.674702,0.651081,-0.287961,2.274600,1.224500,-0.428400,1
-1.753155,0.533401,-0.209508,2.274700,1.224400,-0.428400,1
-1.910061,0.690307,-0.405642,2.274800,1.224400,-0.428400,1
-1.910061,0.690307,-0.366415,2.274800,1.224400,-0.428500,1
-1.949288,0.690307,-0.405642,2.274900,1.224300,-0.428400,1
-1.949288,0.690307,-0.405642,2.275000,1.224300,-0.428400,1
-1.949288,0.651081,-0.405642,2.275000,1.224200,-0.428500,1
-1.949288,0.651081,-0.366415,2.275100,1.224200,-0.428500,1
-1.949288,0.651081,-0.366415,2.275200,1.224100,-0.428400,1
-1.949288,0.651081,-0.366415,2.275300,1.224000,-0.428500,1
-1.949288,0.651081,-0.366415,2.275300,1.224000,-0.428500,1
-1.949288,0.690307,-0.327188,2.275400,1.223900,-0.428500,1
-1.949288,0.690307,-0.444867,2.275500,1.223800,-0.428500,1
-1.949288,0.690307,-0.444867,2.275600,1.223800,-0.428500,1
-1.988515,0.729534,-0.444867,2.275800,1.223700,-0.428500,1
-1.988515,0.690307,-0.366415,2.275900,1.223600,-0.428500,1
-1.988515,0.690307,-0.366415,2.275900,1.223500,-0.428600,1
-2.027741,0.690307,-0.366415,2.276100,1.223400,-0.428600,1
-2.027741,0.690307,-0.327188,2.276200,1.223400,-0.428600,1
-2.027741,0.651081,-0.366415,2.276200,1.223300,-0.428600,1
-2.027741,0.651081,-0.366415,2.276400,1.223200,-0.428700,1
-2.106194,0.651081,-0.366415,2.276500,1.223000,-0.428700,1
-2.066968,0.611854,-0.287961,2.276500,1.222900,-0.428700,1
-2.066968,0.611854,-0.287961,2.276600,1.222800,-0.428800,1
-2.106194,0.611854,-0.366415,2.276700,1.222600,-0.428800,1
-2.106194,0.572628,-0.327188,2.276800,1.222500,-0.428800,1
-2.106194,0.651081,-0.366415,2.276900,1.222300,-0.428800,1
-2.106194,0.651081,-0.366415,2.276900,1.222200,-0.428800,1
-2.106194,0.729534,-0.209508,2.277000,1.222100,-0.428900,1
-2.145421,0.729534,-0.170281,2.277000,1.221900,-0.428900,1
-2.145421,0.690307,-0.287961,2.277100,1.221800,-0.428900,1
-2.145421,0.690307,-0.287961,2.277100,1.221600,-0.428900,1
-2.145421,0.651081,-0.287961,2.277100,1.221500,-0.428900,1
-2.145421,0.611854,-0.366415,2.277100,1.221300,-0.428900,1
-2.106194,0.572628,-0.248734,2.277100,1.221200,-0.428900,1
-2.066968,0.572628,-0.248734,2.277200,1.221000,-0.428800,1
-2.066968,0.572628,-0.248734,2.277200,1.220800,-0.428800,1
-2.106194,0.651081,-0.327188,2.277200,1.220600,-0.428800,1
-2.106194,0.690307,-0.287961,2.277200,1.220400,-0.428700,1
-2.145421,0.690307,-0.327188,2.277300,1.220200,-0.428700,1
-2.145421,0.690307,-0.327188,2.277400,1.220100,-0.428700,1
-2.145421,0.729534,-0.366415,2.277400,1.220000,-0.428600,1
-2.145421,0.768761,-0.366415,2.277400,1.219800,-0.428600,1
-2.145421,0.768761,-0.366415,2.277400,1.219600,-0.428500,1
-2.145421,0.768761,-0.366415,2.277500,1.219400,-0.428400,1
-2.184648,0.768761,-0.327188,2.277500,1.219200,-0.428300,1
-2.106194,0.729534,-0.405642,2.277500,1.219000,-0.428300,1
-2.145421,0.690307,-0.484094,2.277600,1.218800,-0.428200,1
-2.145421,0.690307,-0.484094,2.277600,1.218700,-0.428100,1
-2.145421,0.729534,-0.405642,2.277700,1.218500,-0.428000,1
-2.263101,0.690307,-0.405642,2.277700,1.218300,-0.428000,1
-2.263101,0.690307,-0.405642,2.277900,1.218100,-0.427900,1
-2.263101,0.651081,-0.444867,2.277900,1.217900,-0.427900,1
-2.263101,0.651081,-0.484094,2.278000,1.217600,-0.427800,1
-2.302327,0.651081,-0.484094,2.278100,1.217400,-0.427700,1
-2.302327,0.651081,-0.484094,2.278200,1.217300,-0.427700,1
-2.302327,0.611854,-0.484094,2.278200,1.217100,-0.427600,1
-2.459234,0.651081,-0.523321,2.278300,1.216800,-0.427500,1
-2.420007,0.651081,-0.523321,2.278500,1.216600,-0.427400,1
-2.420007,0.651081,-0.523321,2.278500,1.216600,-0.427500,1
-2.420007,0.690307,-0.484094,2.278600,1.216300,-0.427500,1
-2.380781,0.729534,-0.405642,2.278800,1.216000,-0.427400,1
-2.380781,0.729534,-0.562548,2.278900,1.215800,-0.427300,1
-2.380781,0.729534,-0.562548,2.279000,1.215600,-0.427300,1
-2.380781,0.729534,-0.484094,2.279100,1.215400,-0.427300,1
-2.420007,0.729534,-0.484094,2.279200,1.215200,-0.427300,1
-2.420007,0.729534,-0.484094,2.279300,1.214900,-0.427300,1
-2.459234,0.729534,-0.484094,2.279500,1.214600,-0.427300,1
-2.459234,0.690307,-0.484094,2.279600,1.214400,-0.427300,1
-2.459234,0.651081,-0.484094,2.279700,1.214100,-0.427300,1
-2.459234,0.651081,-0.484094,2.279800,1.213900,-0.427300,1
-2.420007,0.572628,-0.444867,2.279900,1.213600,-0.427300,1
-2.459234,0.533401,-0.484094,2.280100,1.213300,-0.427300,1
-2.498460,0.494174,-0.523321,2.280200,1.212900,-0.427300,1
-2.498460,0.494174,-0.523321,2.280400,1.212600,-0.427300,1
-2.498460,0.494174,-0.523321,2.280500,1.212300,-0.427300,1
-2.459234,0.572628,-0.484094,2.280600,1.212000,-0.427400,1
-2.498460,0.690307,-0.444867,2.280800,1.211700,-0.427400,1
-2.498460,0.690307,-0.444867,2.280900,1.211400,-0.427400,1
-2.537687,0.768761,-0.366415,2.280900,1.211100,-0.427500,1
-2.576914,0.847214,-0.405642,2.281100,1.210700,-0.427500,1
-2.576914,0.847214,-0.405642,2.281100,1.210400,-0.427600,1
-2.616140,0.768761,-0.366415,2.281200,1.210000,-0.427700,1
-2.616140,0.729534,-0.444867,2.281300,1.209700,-0.427700,1
-2.616140,0.690307,-0.444867,2.281400,1.209400,-0.427800,1
-2.655367,0.611854,-0.444867,2.281500,1.209100,-0.427900,1
-2.655367,0.611854,-0.444867,2.281600,1.208700,-0.427900,1
-2.733820,0.572628,-0.444867,2.281700,1.208400,-0.428000,1
-2.655367,0.533401,-0.484094,2.281800,1.208100,-0.428000,1
-2.655367,0.533401,-0.484094,2.281900,1.207700,-0.428100,1
-2.694593,0.611854,-0.484094,2.282000,1.207400,-0.428100,1
-2.733820,0.729534,-0.523321,2.282000,1.207100,-0.428200,1
-2.733820,0.768761,-0.523321,2.282000,1.206700,-0.428300,1
-2.733820,0.768761,-0.523321,2.282200,1.206300,-0.428200,1
-2.773047,0.807987,-0.523321,2.282200,1.206000,-0.428300,1
-2.773047,0.847214,-0.601774,2.282200,1.205700,-0.428300,1
-2.812273,0.807987,-0.641001,2.282300,1.205300,-0.428300,1
-2.812273,0.807987,-0.641001,2.282400,1.205000,-0.428300,1
-2.812273,0.768761,-0.719454,2.282400,1.204600,-0.428400,1
-2.851500,0.729534,-0.797907,2.282600,1.204200,-0.428400,1
-2.929953,0.729534,-0.876360,2.282600,1.203900,-0.428400,1
-2.929953,0.729534,-0.876360,2.282700,1.203600,-0.428400,1
-2.890726,0.729534,-0.837133,2.282900,1.203200,-0.428400,1
-2.890726,0.729534,-0.954814,2.283000,1.202900,-0.428400,1
-2.890726,0.729534,-0.954814,2.283200,1.202500,-0.428400,1
-2.929953,0.729534,-0.915587,2.283300,1.202100,-0.428400,1
-2.969179,0.729534,-0.954814,2.283400,1.201700,-0.428400,1
-2.929953,0.690307,-0.994040,2.283500,1.201400,-0.428400,1
-2.929953,0.690307,-0.876360,2.283600,1.200900,-0.428400,1
-2.929953,0.690307,-0.876360,2.283800,1.200500,-0.428400,1
-2.969179,0.768761,-0.876360,2.284000,1.200000,-0.428400,1
-3.008406,0.807987,-0.797907,2.284100,1.199600,-0.428400,1
-3.008406,0.807987,-0.797907,2.284100,1.199100,-0.428500,1
-3.086859,0.807987,-0.758680,2.284300,1.198600,-0.428500,1
-3.086859,0.807987,-0.797907,2.284300,1.198200,-0.428500,1
-3.126086,0.768761,-0.758680,2.284500,1.197800,-0.428600,1
-3.126086,0.768761,-0.758680,2.284600,1.197300,-0.428600,1
-3.165313,0.768761,-0.758680,2.284700,1.196800,-0.428600,1
-3.243766,0.729534,-0.758680,2.284800,1.196300,-0.428700,1
-3.243766,0.729534,-0.758680,2.285000,1.195900,-0.428800,1
-3.282992,0.729534,-0.680227,2.285100,1.195400,-0.428800,1
-3.361446,0.729534,-0.680227,2.285200,1.194900,-0.428900,1
-3.400672,0.768761,-0.601774,2.285300,1.194300,-0.428900,1
-3.400672,0.807987,-0.562548,2.285400,1.193800,-0.429000,1
-3.400672,0.807987,-0.562548,2.285500,1.193200,-0.429000,1
-3.439899,0.807987,-0.523321,2.285600,1.192600,-0.429000,1
-3.518352,0.768761,-0.523321,2.285600,1.192000,-0.429100,1
-3.518352,0.768761,-0.523321,2.285700,1.191400,-0.429100,1
-3.518352,0.768761,-0.523321,2.285700,1.190900,-0.429200,1
-3.518352,0.729534,-0.484094,2.285800,1.190300,-0.429100,1
-3.596805,0.768761,-0.405642,2.286000,1.189700,-0.429100,1
-3.596805,0.768761,-0.405642,2.286100,1.189100,-0.429100,1
-3.557579,0.847214,-0.366415,2.286100,1.188500,-0.429200,1
-3.596805,0.847214,-0.405642,2.286300,1.188000,-0.429300,1
-3.675259,0.807987,-0.405642,2.286400,1.187400,-0.429300,1
-3.675259,0.807987,-0.405642,2.286500,1.186800,-0.429400,1
-3.714485,0.768761,-0.484094,2.286500,1.186200,-0.429500,1
-3.753712,0.768761,-0.484094,2.286600,1.185600,-0.429500,1
-3.753712,0.768761,-0.484094,2.286700,1.185100,-0.429500,1
-3.714485,0.768761,-0.484094,2.286700,1.184500,-0.429600,1
-3.753712,0.807987,-0.523321,2.286800,1.184000,-0.429600,1
-3.636032,0.886441,-0.484094,2.287000,1.183400,-0.429600,1
-3.675259,0.964894,-0.484094,2.287000,1.182800,-0.429600,1
-3.675259,0.964894,-0.484094,2.287100,1.182100,-0.429700,1
-3.714485,1.082574,-0.523321,2.287200,1.181500,-0.429800,1
-3.753712,1.121800,-0.523321,2.287300,1.180900,-0.429800,1
-3.753712,1.121800,-0.523321,2.287500,1.180200,-0.429900,1
-3.753712,1.121800,-0.562548,2.287600,1.179600,-0.429900,1
-3.714485,1.004120,-0.601774,2.287600,1.178900,-0.430000,1
-3.636032,1.043347,-0.523321,2.287800,1.178200,-0.430100,1
-3.596805,1.043347,-0.562548,2.287900,1.177500,-0.430100,1
-3.596805,1.043347,-0.562548,2.288000,1.176800,-0.430200,1
-3.518352,1.043347,-0.523321,2.288200,1.176000,-0.430300,1
-3.557579,1.043347,-0.562548,2.288300,1.175300,-0.430400,1
-3.557579,1.043347,-0.562548,2.288400,1.174500,-0.430500,1
-3.636032,1.121800,-0.523321,2.288600,1.173700,-0.430600,1
-3.675259,1.161027,-0.562548,2.288800,1.172800,-0.430700,1
-3.636032,1.161027,-0.523321,2.288900,1.172000,-0.430800,1
-3.636032,1.161027,-0.523321,2.289100,1.171200,-0.430900,1
-3.675259,1.200253,-0.444867,2.289200,1.170300,-0.431100,1
-3.675259,1.239480,-0.444867,2.289400,1.169400,-0.431200,1
-3.675259,1.239480,-0.444867,2.289600,1.168500,-0.431300,1
-3.675259,1.317933,-0.405642,2.289800,1.167600,-0.431400,1
-3.675259,1.317933,-0.444867,2.290000,1.166700,-0.431500,1
-3.714485,1.239480,-0.484094,2.290300,1.165900,-0.431600,1
-3.714485,1.239480,-0.484094,2.290500,1.165000,-0.431700,1
-3.675259,1.239480,-0.562548,2.290700,1.164000,-0.431700,1
-3.675259,1.200253,-0.523321,2.291000,1.163100,-0.431800,1
-3.596805,1.082574,-0.562548,2.291100,1.162200,-0.432000,1
-3.596805,1.082574,-0.562548,2.291200,1.161300,-0.432100,1
-3.596805,1.082574,-0.523321,2.291400,1.160500,-0.432300,1
-3.479125,1.082574,-0.562548,2.291600,1.159600,-0.432500,1
-3.400672,1.121800,-0.562548,2.291700,1.158800,-0.432600,1
-3.400672,1.121800,-0.562548,2.291900,1.158000,-0.432700,1
-3.400672,1.121800,-0.562548,2.292100,1.157200,-0.432900,1
-3.479125,1.161027,-0.562548,2.292200,1.156400,-0.433100,1
-3.439899,1.161027,-0.601774,2.292300,1.155800,-0.433200,1
-3.439899,1.161027,-0.601774,2.292400,1.155000,-0.433400,1
-3.479125,1.121800,-0.641001,2.292500,1.154300,-0.433600,1
-3.479125,1.043347,-0.680227,2.292700,1.153700,-0.433700,1
-3.439899,0.964894,-0.758680,2.292700,1.153100,-0.433900,1
-3.439899,0.964894,-0.758680,2.292800,1.152500,-0.434000,1
-3.400672,0.964894,-0.719454,2.292800,1.151900,-0.434200,1
-3.361446,0.925667,-0.719454,2.292900,1.151400,-0.434300,1
-3.361446,0.925667,-0.719454,2.292800,1.150900,-0.434500,1
-3.361446,0.964894,-0.758680,2.292800,1.150400,-0.434600,1
-3.361446,1.043347,-0.719454,2.292900,1.149900,-0.434800,1
-3.361446,1.043347,-0.758680,2.292900,1.149400,-0.434900,1
-3.400672,1.161027,-0.837133,2.292900,1.149000,-0.435100,1
-3.400672,1.161027,-0.837133,2.292900,1.148600,-0.435400,1
-3.322219,1.043347,-0.837133,2.292900,1.148300,-0.435600,1
-3.322219,1.043347,-0.797907,2.293000,1.148000,-0.435900,1
-3.322219,1.043347,-0.797907,2.293000,1.147600,-0.436000,1
-3.204539,1.004120,-0.797907,2.293000,1.147300,-0.436200,1
-3.204539,1.043347,-0.797907,2.293100,1.147000,-0.436400,1
-3.243766,1.043347,-0.797907,2.293100,1.146800,-0.436600,1
-3.243766,1.043347,-0.797907,2.293100,1.146500,-0.436800,1
-3.204539,0.964894,-0.837133,2.293200,1.146400,-0.436900,1
-3.243766,0.964894,-0.837133,2.293200,1.146300,-0.437100,1
-3.204539,0.925667,-0.797907,2.293200,1.146100,-0.437200,1
-3.204539,0.925667,-0.758680,2.293300,1.146100,-0.437400,1
-3.204539,0.925667,-0.758680,2.293400,1.146000,-0.437600,1
-3.086859,0.964894,-0.837133,2.293500,1.145900,-0.437700,1
-3.204539,1.004120,-0.837133,2.293500,1.145900,-0.437900,1
-3.204539,1.004120,-0.837133,2.293700,1.146000,-0.438000,1
-3.165313,1.043347,-0.797907,2.293800,1.146100,-0.438100,1
-3.204539,1.043347,-0.837133,2.294000,1.146200,-0.438300,1
-3.204539,1.043347,-0.797907,2.294100,1.146300,-0.438400,1
-3.204539,1.043347,-0.797907,2.294200,1.146500,-0.438600,1
-3.204539,1.043347,-0.837133,2.294300,1.146700,-0.438800,1
-3.165313,1.043347,-0.758680,2.294400,1.147000,-0.439000,1
-3.165313,1.082574,-0.837133,2.294600,1.147200,-0.439100,1
-3.165313,1.082574,-0.837133,2.294700,1.147400,-0.439200,1
-3.204539,1.082574,-0.797907,2.294800,1.147700,-0.439300,1
-3.204539,1.043347,-0.837133,2.295000,1.147900,-0.439300,1
-3.204539,1.043347,-0.837133,2.295100,1.148200,-0.439400,1
-3.165313,1.121800,-0.797907,2.295300,1.148600,-0.439500,1
-3.165313,1.200253,-0.719454,2.295400,1.148900,-0.439500,1
-3.165313,1.278707,-0.797907,2.295500,1.149300,-0.439700,1
-3.165313,1.278707,-0.797907,2.295600,1.149600,-0.439700,1
-3.126086,1.278707,-0.719454,2.295800,1.150000,-0.439800,1
-3.126086,1.239480,-0.719454,2.295800,1.150400,-0.439900,1
-3.047633,1.239480,-0.719454,2.296000,1.150600,-0.439900,1
-3.047633,1.239480,-0.719454,2.296100,1.151000,-0.440000,1
-3.047633,1.239480,-0.719454,2.296100,1.151300,-0.440000,1
-3.086859,1.239480,-0.719454,2.296200,1.151700,-0.440000,1
-3.086859,1.239480,-0.719454,2.296300,1.152000,-0.440000,1
-3.047633,1.200253,-0.680227,2.296400,1.152400,-0.440100,1
-3.047633,1.200253,-0.719454,2.296400,1.152700,-0.440100,1
-3.047633,1.200253,-0.719454,2.296600,1.153100,-0.440200,1
-3.047633,1.161027,-0.719454,2.296600,1.153400,-0.440200,1
-3.008406,1.357160,-0.601774,2.296700,1.153700,-0.440200,1
-2.969179,1.357160,-0.562548,2.296700,1.154100,-0.440200,1
-3.008406,1.317933,-0.641001,2.296800,1.154400,-0.440200,1
-3.008406,1.317933,-0.641001,2.296900,1.154700,-0.440200,1
-3.008406,1.317933,-0.641001,2.296900,1.155100,-0.440200,1
-3.008406,1.239480,-0.601774,2.296900,1.155400,-0.440200,1
-2.969179,1.278707,-0.641001,2.297000,1.155700,-0.440200,1
-2.969179,1.278707,-0.641001,2.297000,1.155900,-0.440200,1
-2.969179,1.278707,-0.680227,2.297000,1.156200,-0.440200,1
-2.890726,1.278707,-0.562548,2.297000,1.156500,-0.440200,1
-2.969179,1.317933,-0.562548,2.296900,1.156800,-0.440200,1
-2.969179,1.317933,-0.562548,2.297000,1.157000,-0.440200,1
-2.929953,1.317933,-0.601774,2.297000,1.157200,-0.440200,1
-2.851500,1.317933,-0.601774,2.297000,1.157400,-0.440200,1
-2.851500,1.239480,-0.601774,2.296900,1.157700,-0.440200,1
-2.851500,1.239480,-0.601774,2.296900,1.158000,-0.440200,1
-2.812273,1.239480,-0.601774,2.296800,1.158300,-0.440100,1
-2.773047,1.200253,-0.601774,2.296800,1.158500,-0.440100,1
-2.773047,1.200253,-0.601774,2.296800,1.158700,-0.440100,1
-2.773047,1.200253,-0.562548,2.296700,1.158900,-0.440200,1
-2.773047,1.200253,-0.641001,2.296700,1.159100,-0.440200,1
-2.812273,1.278707,-0.601774,2.296700,1.159400,-0.440200,1
-2.733820,1.200253,-0.680227,2.296600,1.159600,-0.440200,1
-2.733820,1.200253,-0.680227,2.296600,1.159800,-0.440200,1
-2.694593,1.161027,-0.641001,2.296600,1.160100,-0.440200,1
-2.655367,1.161027,-0.601774,2.296600,1.160300,-0.440200,1
-2.655367,1.161027,-0.601774,2.296600,1.160600,-0.440300,1
-2.694593,1.161027,-0.641001,2.296600,1.160800,-0.440300,1
-2.655367,1.121800,-0.641001,2.296600,1.161000,-0.440300,1
-2.655367,1.121800,-0.601774,2.296600,1.161300,-0.440300,1
-2.655367,1.121800,-0.601774,2.296600,1.161500,-0.440400,1
-2.616140,1.200253,-0.641001,2.296600,1.161700,-0.440400,1
-2.616140,1.200253,-0.562548,2.296600,1.162000,-0.440500,1
-2.576914,1.239480,-0.601774,2.296600,1.162200,-0.440500,1
-2.576914,1.239480,-0.601774,2.296600,1.162500,-0.440500,1
-2.537687,1.278707,-0.641001,2.296600,1.162700,-0.440500,1
-2.576914,1.317933,-0.601774,2.296600,1.163000,-0.440600,1
-2.576914,1.357160,-0.523321,2.296600,1.163200,-0.440700,1
-2.576914,1.357160,-0.523321,2.296600,1.163500,-0.440700,1
-2.537687,1.317933,-0.641001,2.296700,1.163800,-0.440800,1
-2.498460,1.239480,-0.641001,2.296700,1.164100,-0.440800,1
-2.498460,1.239480,-0.641001,2.296800,1.164400,-0.440900,1
-2.537687,1.239480,-0.562548,2.296700,1.164700,-0.441000,1
-2.498460,1.200253,-0.562548,2.296900,1.165000,-0.441000,1
-2.459234,1.200253,-0.562548,2.296900,1.165300,-0.441100,1
-2.420007,1.200253,-0.562548,2.296900,1.165600,-0.441300,1
-2.420007,1.200253,-0.562548,2.296900,1.166000,-0.441400,1
-2.498460,1.317933,-0.562548,2.296900,1.166300,-0.441500,1
-2.498460,1.317933,-0.601774,2.297000,1.166600,-0.441700,1
-2.498460,1.317933,-0.601774,2.297000,1.167000,-0.441900,1
-2.459234,1.317933,-0.641001,2.297100,1.167300,-0.442000,1
-2.498460,1.317933,-0.641001,2.297100,1.167700,-0.442200,1
-2.341554,1.239480,-0.680227,2.297100,1.168100,-0.442300,1
-2.341554,1.239480,-0.680227,2.297200,1.168400,-0.442400,1
-2.420007,1.200253,-0.641001,2.297200,1.168800,-0.442600,1
-2.420007,1.200253,-0.641001,2.297300,1.169200,-0.442700,1
-2.420007,1.200253,-0.641001,2.297300,1.169600,-0.442900,1
-2.380781,1.121800,-0.641001,2.297300,1.169900,-0.443100,1
-2.380781,1.121800,-0.680227,2.297300,1.170300,-0.443200,1
-2.420007,1.082574,-0.680227,2.297300,1.170700,-0.443400,1
-2.420007,1.082574,-0.758680,2.297300,1.171100,-0.443600,1
-2.420007,1.082574,-0.758680,2.297400,1.171500,-0.443700,1
-2.380781,1.082574,-0.719454,2.297400,1.171900,-0.443900,1
-2.380781,1.004120,-0.719454,2.297400,1.172300,-0.444100,1
-2.380781,1.004120,-0.680227,2.297400,1.172600,-0.444300,1
-2.380781,1.004120,-0.680227,2.297400,1.173000,-0.444500,1
-2.380781,1.043347,-0.719454,2.297400,1.173400,-0.444700,1
-2.380781,1.004120,-0.797907,2.297300,1.173800,-0.444900,1
-2.380781,1.004120,-0.797907,2.297300,1.174100,-0.445100,1
-2.380781,1.043347,-0.719454,2.297200,1.174400,-0.445300,1
-2.420007,1.082574,-0.680227,2.297300,1.174800,-0.445500,1
-2.459234,1.121800,-0.641001,2.297300,1.175100,-0.445800,1
-2.459234,1.121800,-0.601774,2.297300,1.175600,-0.445900,1
-2.459234,1.121800,-0.601774,2.297400,1.175900,-0.446100,1
-2.420007,1.121800,-0.641001,2.297300,1.176200,-0.446400,1
-2.459234,1.121800,-0.601774,2.297300,1.176600,-0.446600,1
-2.459234,1.121800,-0.601774,2.297300,1.177000,-0.446900,1
-2.459234,1.082574,-0.680227,2.297400,1.177300,-0.447100,1
-2.459234,1.004120,-0.601774,2.297400,1.177600,-0.447300,1
-2.380781,1.004120,-0.523321,2.297400,1.178000,-0.447600,1
-2.380781,1.004120,-0.523321,2.297500,1.178300,-0.447800,1
-2.380781,1.004120,-0.523321,2.297500,1.178700,-0.448000,1
-2.341554,1.082574,-0.484094,2.297500,1.179000,-0.448300,1
-2.341554,1.082574,-0.484094,2.297600,1.179400,-0.448500,1
-2.420007,1.200253,-0.484094,2.297700,1.179700,-0.448700,1
-2.380781,1.200253,-0.484094,2.297800,1.180000,-0.448900,1
-2.420007,1.200253,-0.484094,2.297900,1.180300,-0.449100,1
-2.459234,1.121800,-0.405642,2.298000,1.180600,-0.449300,1
-2.459234,1.121800,-0.405642,2.298100,1.180900,-0.449500,1
-2.420007,1.082574,-0.444867,2.298200,1.181200,-0.449800,1
-2.420007,1.004120,-0.405642,2.298300,1.181500,-0.450000,1
-2.420007,1.004120,-0.444867,2.298300,1.181800,-0.450200,1
-2.420007,1.004120,-0.444867,2.298400,1.182000,-0.450500,1
-2.380781,1.082574,-0.366415,2.298500,1.182300,-0.450700,1
-2.420007,1.082574,-0.405642,2.298600,1.182500,-0.450900,1
-2.420007,1.082574,-0.405642,2.298600,1.182700,-0.451200,1
-2.341554,1.043347,-0.366415,2.298700,1.182900,-0.451400,1
-2.380781,1.121800,-0.405642,2.298800,1.183100,-0.451600,1
-2.341554,1.121800,-0.287961,2.298900,1.183200,-0.451800,1
-2.302327,1.200253,-0.287961,2.298900,1.183400,-0.452000,1
-2.302327,1.200253,-0.287961,2.298900,1.183500,-0.452300,1
-2.302327,1.200253,-0.287961,2.298900,1.183600,-0.452700,1
-2.302327,1.278707,-0.287961,2.298900,1.183800,-0.452900,1
-2.302327,1.278707,-0.287961,2.298900,1.183900,-0.453200,1
-2.263101,1.200253,-0.327188,2.299000,1.184000,-0.453400,1
-2.223874,1.239480,-0.366415,2.299000,1.184100,-0.453700,1
-2.263101,1.161027,-0.287961,2.299000,1.184200,-0.454000,1
-2.263101,1.161027,-0.287961,2.299000,1.184300,-0.454300,1
-2.223874,1.161027,-0.327188,2.299100,1.184400,-0.454500,1
-2.223874,1.121800,-0.366415,2.299100,1.184500,-0.454700,1
-2.223874,1.121800,-0.366415,2.299100,1.184600,-0.455100,1
-2.184648,1.082574,-0.366415,2.299000,1.184600,-0.455400,1
-2.184648,1.082574,-0.444867,2.299000,1.184700,-0.455700,1
-2.145421,1.121800,-0.366415,2.299000,1.184700,-0.456000,1
-2.106194,1.082574,-0.405642,2.299000,1.184800,-0.456300,1
-2.106194,1.082574,-0.405642,2.298900,1.184800,-0.456600,1
-2.066968,1.082574,-0.484094,2.298900,1.184900,-0.456900,1
-2.106194,1.161027,-0.444867,2.298800,1.185000,-0.457300,1
-2.106194,1.161027,-0.444867,2.298800,1.185100,-0.457600,1
-2.106194,1.239480,-0.444867,2.298800,1.185200,-0.457900,1
-2.106194,1.239480,-0.444867,2.298700,1.185300,-0.458300,1
-2.027741,1.239480,-0.444867,2.298600,1.185300,-0.458700,1
-1.988515,1.200253,-0.444867,2.298600,1.185400,-0.459100,1
-1.988515,1.200253,-0.444867,2.298400,1.185600,-0.459400,1
-2.027741,1.161027,-0.484094,2.298300,1.185600,-0.459700,1
-1.949288,1.161027,-0.523321,2.298200,1.185800,-0.460100,1
-1.949288,1.161027,-0.523321,2.298000,1.185900,-0.460400,1
-1.949288,1.082574,-0.601774,2.297900,1.186000,-0.460800,1
-1.949288,0.964894,-0.680227,2.297700,1.186100,-0.461100,1
-1.910061,0.925667,-0.680227,2.297700,1.186300,-0.461400,1
-1.910061,0.925667,-0.680227,2.297600,1.186400,-0.461800,1
-1.949288,0.886441,-0.719454,2.297400,1.186600,-0.462200,1
-1.988515,0.925667,-0.680227,2.297300,1.186800,-0.462500,1
-1.988515,1.004120,-0.641001,2.297100,1.187000,-0.462900,1
-1.988515,1.004120,-0.719454,2.297000,1.187200,-0.463200,1
-1.988515,1.004120,-0.719454,2.296800,1.187400,-0.463600,1
-2.066968,1.043347,-0.641001,2.296700,1.187600,-0.463900,1
-2.106194,1.082574,-0.680227,2.296700,1.187800,-0.464200,1
-2.106194,1.082574,-0.680227,2.296400,1.188100,-0.464600,1
-2.106194,1.082574,-0.719454,2.296300,1.188300,-0.464900,1
-2.184648,1.161027,-0.641001,2.296200,1.188500,-0.465200,1
-2.184648,1.200253,-0.641001,2.296000,1.188700,-0.465600,1
-2.184648,1.200253,-0.641001,2.295800,1.188900,-0.465900,1
-2.184648,1.161027,-0.601774,2.295700,1.189100,-0.466100,1
-2.184648,1.200253,-0.523321,2.295500,1.189400,-0.466400,1
-2.184648,1.200253,-0.523321,2.295300,1.189600,-0.466700,1
-2.184648,1.200253,-0.523321,2.295200,1.189800,-0.467000,1
-2.223874,1.161027,-0.444867,2.295000,1.190100,-0.467300,1
-2.263101,1.161027,-0.444867,2.294900,1.190300,-0.467600,1
-2.263101,1.161027,-0.444867,2.294800,1.190500,-0.467800,1
-2.263101,1.200253,-0.405642,2.294700,1.190800,-0.468100,1
-2.263101,1.161027,-0.327188,2.294600,1.191000,-0.468300,1
-2.263101,1.082574,-0.405642,2.294400,1.191200,-0.468600,1
-2.263101,1.082574,-0.405642,2.294300,1.191400,-0.468800,1
-2.263101,1.043347,-0.405642,2.294200,1.191600,-0.469000,1
-2.263101,1.121800,-0.287961,2.294000,1.191700,-0.469200,1
-2.302327,1.161027,-0.248734,2.293800,1.191900,-0.469400,1
-2.302327,1.161027,-0.248734,2.293600,1.191900,-0.469600,1
-2.263101,1.121800,-0.248734,2.293500,1.192000,-0.469700,1
-2.302327,1.161027,-0.248734,2.293300,1.192000,-0.469900,1
-2.263101,1.121800,-0.248734,2.293100,1.192000,-0.470000,1
-2.263101,1.121800,-0.248734,2.293000,1.192000,-0.470200,1
-2.302327,1.082574,-0.287961,2.292700,1.192000,-0.470400,1
-2.263101,1.004120,-0.287961,2.292400,1.191900,-0.470600,1
-2.263101,1.004120,-0.287961,2.292200,1.191900,-0.470800,1
-2.263101,1.004120,-0.248734,2.292000,1.191800,-0.471000,1
-2.145421,0.886441,-0.248734,2.291800,1.191700,-0.471200,1
-2.145421,0.886441,-0.170281,2.291600,1.191700,-0.471400,1
-2.066968,0.925667,-0.170281,2.291400,1.191600,-0.471600,1
-2.066968,0.925667,-0.170281,2.291100,1.191600,-0.471800,1
-2.027741,1.004120,-0.170281,2.291000,1.191500,-0.472000,1
-2.066968,1.004120,-0.209508,2.290700,1.191400,-0.472300,1
-2.066968,1.004120,-0.209508,2.290500,1.191300,-0.472400,1
-1.988515,0.964894,-0.248734,2.290300,1.191200,-0.472700,1
-1.988515,1.004120,-0.248734,2.290000,1.191100,-0.472900,1
-1.949288,1.004120,-0.248734,2.289800,1.191000,-0.473200,1
-1.949288,1.004120,-0.248734,2.289500,1.191000,-0.473500,1
-1.988515,0.964894,-0.366415,2.289200,1.191000,-0.473700,1
-1.988515,0.886441,-0.405642,2.288900,1.191000,-0.474000,1
-1.949288,0.847214,-0.444867,2.288600,1.191000,-0.474200,1
-1.949288,0.847214,-0.444867,2.288300,1.191000,-0.474400,1
-1.870835,0.886441,-0.484094,2.288000,1.191000,-0.474700,1
-1.831608,0.925667,-0.523321,2.287600,1.191000,-0.475000,1
-1.870835,1.043347,-0.523321,2.287200,1.191100,-0.475300,1
-1.870835,1.043347,-0.523321,2.286900,1.191100,-0.475600,1
-1.870835,1.121800,-0.641001,2.286400,1.191300,-0.475900,1
-1.792382,1.200253,-0.641001,2.286000,1.191400,-0.476200,1
-1.792382,1.200253,-0.641001,2.285500,1.191500,-0.476400,1
-1.753155,1.239480,-0.758680,2.285100,1.191500,-0.476700,1
-1.674702,1.317933,-0.680227,2.284600,1.191700,-0.477000,1
-1.557022,1.317933,-0.680227,2.284100,1.191700,-0.477300,1
-1.557022,1.317933,-0.680227,2.283600,1.191900,-0.477500,1
-1.478569,1.278707,-0.601774,2.283100,1.192100,-0.477700,1
-1.517795,1.317933,-0.562548,2.282500,1.192300,-0.477900,1
-1.517795,1.317933,-0.562548,2.282000,1.192500,-0.478100,1
-1.557022,1.278707,-0.484094,2.281500,1.192700,-0.478200,1
-1.596249,1.317933,-0.523321,2.280900,1.192900,-0.478400,1
-1.596249,1.278707,-0.562548,2.280300,1.193100,-0.478500,1
-1.596249,1.357160,-0.562548,2.279700,1.193300,-0.478600,1
-1.596249,1.357160,-0.562548,2.279100,1.193500,-0.478700,1
-1.674702,1.239480,-0.444867,2.278500,1.193600,-0.478800,1
-1.713928,1.278707,-0.444867,2.277900,1.193800,-0.479000,1
-1.713928,1.278707,-0.405642,2.277300,1.193900,-0.479000,1
-1.713928,1.239480,-0.366415,2.276700,1.194100,-0.479000,1
-1.713928,1.239480,-0.366415,2.276000,1.194200,-0.479100,1
-1.831608,1.317933,-0.366415,2.275400,1.194200,-0.479100,1
-1.831608,1.317933,-0.287961,2.274800,1.194300,-0.479100,1
-1.831608,1.317933,-0.287961,2.274300,1.194400,-0.479200,1
-1.910061,1.278707,-0.287961,2.273800,1.194500,-0.479200,1
-1.910061,1.278707,-0.209508,2.273300,1.194500,-0.479100,1
-1.910061,1.278707,-0.209508,2.272800,1.194500,-0.479000,1
-1.988515,1.278707,-0.170281,2.272300,1.194500,-0.479000,1
-1.988515,1.239480,-0.209508,2.271900,1.194500,-0.478900,1
-1.988515,1.200253,-0.170281,2.271500,1.194400,-0.478700,1
-2.027741,1.239480,-0.131055,2.271200,1.194500,-0.478600,1
-2.027741,1.239480,-0.131055,2.270700,1.194400,-0.478400,1
-2.027741,1.278707,-0.091828,2.270400,1.194300,-0.478200,1
-2.027741,1.239480,-0.091828,2.270100,1.194300,-0.477900,1
-2.066968,1.239480,-0.131055,2.269700,1.194200,-0.477700,1
-2.066968,1.239480,-0.131055,2.269400,1.194100,-0.477500,1
-2.066968,1.278707,-0.170281,2.269100,1.194100,-0.477200,1
-2.106194,1.239480,-0.091828,2.268800,1.194100,-0.477000,1
-2.027741,1.200253,-0.052602,2.268500,1.194000,-0.476800,1
-1.988515,1.278707,-0.052602,2.268300,1.193900,-0.476500,1
-1.988515,1.278707,-0.131055,2.268000,1.193900,-0.476300,1
-1.988515,1.278707,-0.131055,2.267800,1.193900,-0.476000,1
-1.910061,1.200253,-0.091828,2.267600,1.193900,-0.475700,1
-1.949288,1.121800,-0.170281,2.267300,1.193900,-0.475400,1
-1.949288,1.121800,-0.170281,2.267000,1.194000,-0.475200,1
-1.988515,1.121800,-0.209508,2.266800,1.194100,-0.474900,1
-1.949288,1.043347,-0.209508,2.266600,1.194200,-0.474600,1
-1.988515,1.082574,-0.209508,2.266400,1.194300,-0.474200,1
-1.949288,1.121800,-0.209508,2.266100,1.194500,-0.474000,1
-1.949288,1.121800,-0.209508,2.265900,1.194700,-0.473700,1
-1.870835,1.082574,-0.248734,2.265600,1.194900,-0.473400,1
-1.870835,1.161027,-0.248734,2.265400,1.195200,-0.473100,1
-1.792382,0.925667,-0.641001,2.265200,1.195300,-0.472800,1
-1.792382,0.925667,-0.562548,2.264900,1.195700,-0.472500,1
-1.792382,0.847214,-0.680227,2.264700,1.195900,-0.472300,1
-1.713928,0.847214,-0.641001,2.264400,1.196300,-0.472000,1
-1.713928,0.847214,-0.641001,2.264300,1.196600,-0.471600,1
-1.713928,0.847214,-0.641001,2.264100,1.197000,-0.471300,1
-1.713928,0.847214,-0.641001,2.263800,1.197300,-0.471000,1
-1.713928,0.925667,-0.641001,2.263500,1.197800,-0.470800,1
-1.596249,0.925667,-0.641001,2.263300,1.198200,-0.470500,1
-1.596249,1.004120,-0.641001,2.263100,1.198700,-0.470200,1
-1.596249,1.004120,-0.641001,2.262900,1.199100,-0.469900,1
-1.596249,1.121800,-0.444867,2.262600,1.199500,-0.469600,1
-1.596249,1.121800,-0.444867,2.262300,1.200000,-0.469400,1
-1.517795,1.161027,-0.444867,2.262100,1.200400,-0.469100,1
-1.517795,1.161027,-0.484094,2.261900,1.201000,-0.468700,1
-1.517795,1.161027,-0.484094,2.261600,1.201400,-0.468400,1
-1.557022,1.161027,-0.484094,2.261400,1.201900,-0.468200,1
-1.635475,1.121800,-0.484094,2.261100,1.202500,-0.467900,1
-1.635475,1.082574,-0.444867,2.260900,1.203000,-0.467700,1
-1.635475,1.082574,-0.444867,2.260700,1.203500,-0.467400,1
-1.635475,1.161027,-0.405642,2.260400,1.204000,-0.467100,1
-1.635475,1.200253,-0.366415,2.260200,1.204500,-0.466900,1
-1.635475,1.200253,-0.366415,2.259900,1.205000,-0.466700,1
-1.635475,1.278707,-0.327188,2.259600,1.205500,-0.466400,1
-1.596249,1.357160,-0.366415,2.259400,1.205900,-0.466100,1
-1.635475,1.317933,-0.248734,2.259100,1.206400,-0.465800,1
-1.596249,1.317933,-0.287961,2.258800,1.206900,-0.465600,1
-1.596249,1.317933,-0.287961,2.258500,1.207300,-0.465300,1
-1.596249,1.317933,-0.287961,2.258300,1.207700,-0.465100,1
-1.596249,1.200253,-0.248734,2.258000,1.208100,-0.464900,1
-1.596249,1.200253,-0.248734,2.257600,1.208500,-0.464700,1
-1.517795,1.161027,-0.327188,2.257400,1.208900,-0.464400,1
-1.557022,1.043347,-0.366415,2.257100,1.209200,-0.464200,1
-1.674702,1.043347,-0.327188,2.256700,1.209500,-0.464100,1
-1.674702,1.043347,-0.327188,2.256300,1.209800,-0.463900,1
-1.596249,1.004120,-0.287961,2.256100,1.210100,-0.463700,1
-1.635475,1.121800,-0.248734,2.255800,1.210300,-0.463500,1
-1.635475,1.121800,-0.248734,2.255400,1.210500,-0.463300,1
-1.674702,1.200253,-0.170281,2.255200,1.210700,-0.463100,1
-1.713928,1.239480,-0.209508,2.255000,1.210900,-0.463000,1
-1.792382,1.161027,-0.287961,2.254700,1.211000,-0.462800,1
-1.831608,1.161027,-0.287961,2.254500,1.211100,-0.462600,1
-1.831608,1.161027,-0.287961,2.254300,1.211300,-0.462500,1
-1.910061,1.043347,-0.366415,2.254100,1.211400,-0.462200,1
-1.831608,0.925667,-0.327188,2.254000,1.211500,-0.462000,1
-1.831608,0.925667,-0.327188,2.253800,1.211600,-0.461900,1
-1.753155,0.807987,-0.366415,2.253700,1.211700,-0.461700,1
-1.635475,0.807987,-0.327188,2.253500,1.211800,-0.461600,1
-1.557022,0.729534,-0.366415,2.253300,1.212000,-0.461400,1
-1.557022,0.729534,-0.366415,2.253200,1.212100,-0.461300,1
-1.557022,0.690307,-0.405642,2.253100,1.212200,-0.461200,1
-1.557022,0.611854,-0.484094,2.253100,1.212300,-0.461000,1
-1.557022,0.611854,-0.484094,2.253100,1.212500,-0.460900,1
-1.517795,0.572628,-0.523321,2.253200,1.212700,-0.460700,1
-1.517795,0.572628,-0.523321,2.253300,1.212800,-0.460600,1
-1.478569,0.572628,-0.484094,2.253400,1.213000,-0.460500,1
-1.400115,0.572628,-0.444867,2.253400,1.213100,-0.460400,1
-1.400115,0.572628,-0.444867,2.253500,1.213300,-0.460300,1
-1.400115,0.572628,-0.484094,2.253700,1.213500,-0.460100,1
-1.439342,0.572628,-0.484094,2.253900,1.213700,-0.460000,1
-1.478569,0.611854,-0.484094,2.254000,1.213900,-0.459900,1
-1.478569,0.611854,-0.484094,2.254300,1.214100,-0.459700,1
-1.439342,0.690307,-0.562548,2.254500,1.214300,-0.459600,1
-1.321662,0.651081,-0.523321,2.254700,1.214600,-0.459500,1
-1.164756,0.690307,-0.523321,2.255000,1.214800,-0.459400,1
-1.164756,0.690307,-0.523321,2.255300,1.215100,-0.459300,1
-1.086303,0.807987,-0.444867,2.255600,1.215300,-0.459300,1
-1.125529,0.886441,-0.484094,2.255900,1.215600,-0.459300,1
-1.321662,1.043347,-0.444867,2.256300,1.215800,-0.459300,1
-1.321662,1.043347,-0.444867,2.256700,1.216100,-0.459200,1
-1.439342,1.004120,-0.562548,2.257000,1.216300,-0.459200,1
-1.596249,0.964894,-0.641001,2.257400,1.216600,-0.459200,1
-1.596249,0.964894,-0.641001,2.257800,1.216800,-0.459200,1
-1.713928,0.807987,-0.601774,2.258100,1.217100,-0.459200,1
-1.792382,0.729534,-0.719454,2.258500,1.217300,-0.459100,1
-1.870835,0.533401,-0.797907,2.258900,1.217500,-0.459100,1
-1.870835,0.533401,-0.797907,2.259200,1.217700,-0.459100,1
-1.870835,0.376495,-0.837133,2.259600,1.217800,-0.459000,1
-1.988515,0.376495,-0.876360,2.259900,1.218000,-0.459000,1
-1.988515,0.376495,-0.876360,2.260200,1.218100,-0.458900,1
-1.949288,0.337268,-0.915587,2.260600,1.218300,-0.458800,1
-1.988515,0.376495,-0.994040,2.260900,1.218400,-0.458700,1
-1.988515,0.337268,-1.033266,2.261200,1.218400,-0.458600,1
-1.870835,0.219588,-1.033266,2.261600,1.218400,-0.458500,1
-1.870835,0.219588,-1.033266,2.261900,1.218400,-0.458400,1
-1.831608,0.180362,-0.994040,2.262200,1.218400,-0.458300,1
-1.753155,0.141135,-1.033266,2.262600,1.218300,-0.458100,1
-1.753155,0.141135,-1.033266,2.263000,1.218300,-0.458000,1
-1.910061,0.298042,-1.111720,2.263400,1.218200,-0.457800,1
-1.949288,0.454948,-1.190173,2.263900,1.218000,-0.457600,1
-1.949288,0.454948,-1.190173,2.264500,1.217800,-0.457400,1
-1.949288,0.651081,-1.229400,2.265100,1.217600,-0.457200,1
-1.910061,0.690307,-1.307853,2.265700,1.217400,-0.457100,1
-1.870835,0.729534,-1.307853,2.266300,1.217200,-0.457000,1
-1.753155,0.690307,-1.307853,2.267000,1.216900,-0.456900,1
-1.753155,0.690307,-1.307853,2.267600,1.216600,-0.456800,1
-1.753155,0.729534,-1.386306,2.268100,1.216300,-0.456800,1
-1.792382,0.729534,-1.464759,2.268800,1.216000,-0.456700,1
-1.792382,0.729534,-1.464759,2.269300,1.215600,-0.456600,1
-1.910061,0.768761,-1.503986,2.270000,1.215100,-0.456600,1
-1.988515,0.807987,-1.582439,2.270400,1.214600,-0.456700,1
-2.066968,0.807987,-1.503986,2.271000,1.214100,-0.456700,1
-2.145421,0.847214,-1.543213,2.271500,1.213500,-0.456700,1
-2.145421,0.847214,-1.543213,2.271900,1.212900,-0.456700,1
-2.184648,0.886441,-1.503986,2.272300,1.212200,-0.456800,1
-2.184648,0.886441,-1.503986,2.272800,1.211400,-0.456800,1
-2.302327,0.886441,-1.543213,2.273100,1.210600,-0.456900,1
-2.302327,0.807987,-1.543213,2.273500,1.209900,-0.456900,1
-2.380781,0.807987,-1.543213,2.273900,1.209000,-0.457000,1
-2.420007,0.768761,-1.386306,2.274300,1.208000,-0.457100,1
-2.420007,0.768761,-1.386306,2.274700,1.206900,-0.457200,1
-2.459234,0.807987,-1.307853,2.275100,1.205800,-0.457400,1
-2.498460,0.847214,-1.307853,2.275400,1.204600,-0.457600,1
-2.498460,0.847214,-1.307853,2.275800,1.203400,-0.457700,1
-2.576914,1.004120,-1.307853,2.276200,1.202000,-0.457900,1
-2.576914,1.043347,-1.190173,2.276700,1.200600,-0.458100,1
-2.576914,1.043347,-1.190173,2.277200,1.199100,-0.458400,1
-2.616140,1.239480,-1.229400,2.277700,1.197400,-0.458600,1
-2.616140,1.239480,-1.229400,2.278200,1.195600,-0.458900,1
-2.694593,1.396386,-1.111720,2.278800,1.193900,-0.459200,1
-2.812273,1.396386,-1.111720,2.279200,1.192000,-0.459500,1
-2.929953,1.474840,-1.033266,2.279800,1.190100,-0.459900,1
-2.929953,1.474840,-1.033266,2.280400,1.188000,-0.460200,1
-2.929953,1.357160,-1.033266,2.281000,1.185800,-0.460600,1
-3.008406,1.239480,-0.994040,2.281600,1.183600,-0.461000,1
-3.126086,0.964894,-1.072494,2.282200,1.181300,-0.461400,1
-3.126086,0.964894,-1.072494,2.282800,1.179000,-0.461900,1
-3.282992,0.807987,-1.111720,2.283400,1.176600,-0.462400,1
-3.439899,0.768761,-1.150947,2.284000,1.174100,-0.462900,1
-3.675259,0.807987,-1.072494,2.284700,1.171500,-0.463300,1
-3.832165,0.886441,-1.033266,2.285300,1.168900,-0.463900,1
-3.832165,0.886441,-1.033266,2.286000,1.166200,-0.464500,1
-3.989071,1.043347,-0.915587,2.286600,1.163600,-0.465200,1
-4.067524,1.082574,-0.797907,2.287400,1.160800,-0.465800,1
-4.067524,1.082574,-0.797907,2.288200,1.158000,-0.466400,1
-4.224431,1.121800,-0.797907,2.289000,1.155200,-0.467100,1
-4.302884,1.082574,-0.837133,2.289900,1.152300,-0.467700,1
-4.342111,1.121800,-0.876360,2.290800,1.149400,-0.468500,1
-4.499017,1.121800,-0.915587,2.291800,1.146500,-0.469200,1
-4.655923,1.004120,-0.915587,2.292600,1.143500,-0.470000,1
-4.773603,1.043347,-0.994040,2.293700,1.140500,-0.470700,1
-4.773603,1.043347,-0.994040,2.294500,1.137600,-0.471400,1
-4.891283,1.004120,-1.033266,2.295500,1.134500,-0.472100,1
-4.891283,0.925667,-1.150947,2.296300,1.131500,-0.472800,1
-4.891283,0.925667,-1.150947,2.297300,1.128400,-0.473500,1
-4.891283,0.925667,-1.268627,2.298100,1.125400,-0.474300,1
-4.891283,0.847214,-1.425533,2.299000,1.122400,-0.475000,1
-5.048190,0.886441,-1.582439,2.299900,1.119400,-0.475800,1
-5.126643,0.886441,-1.660892,2.300800,1.116400,-0.476700,1
-5.126643,0.886441,-1.660892,2.301700,1.113400,-0.477500,1
-7.087973,2.612411,-1.817799,2.302600,1.110500,-0.478300,1
-7.166426,2.494731,-1.974705,2.303500,1.107600,-0.479100,1
-7.244879,2.220145,-2.131612,2.304400,1.104800,-0.479900,1
-7.284106,1.867105,-2.366971,2.305200,1.102000,-0.480700,1
-7.362559,1.435613,-2.484651,2.306000,1.099400,-0.481400,1
-7.362559,0.964894,-2.680784,2.306800,1.096700,-0.482200,1
-7.284106,0.729534,-2.876917,2.307700,1.094100,-0.482900,1
-7.284106,0.729534,-2.876917,2.308500,1.091300,-0.483800,1
-7.205653,0.611854,-3.073050,2.309300,1.088400,-0.484800,1
-7.127200,0.651081,-3.151503,2.310000,1.085700,-0.485800,1
-7.127200,0.651081,-3.151503,2.310700,1.082900,-0.486600,1
-7.087973,0.807987,-3.308410,2.311400,1.080300,-0.487400,1
-7.087973,1.043347,-3.465316,2.312000,1.077700,-0.488100,1
-7.127200,1.317933,-3.504543,2.312600,1.075100,-0.489000,1
-7.048746,1.553293,-3.543769,2.313300,1.072500,-0.489800,1
-7.048746,1.553293,-3.543769,2.313800,1.069700,-0.490800,1
-7.087973,1.710199,-3.582996,2.314400,1.066900,-0.491800,1
-7.009520,1.670973,-3.739902,2.315100,1.064300,-0.492600,1
-7.009520,1.670973,-3.739902,2.315700,1.061600,-0.493600,1
-7.009520,1.710199,-3.857582,2.316300,1.059100,-0.494500,1
-7.087973,1.710199,-3.975262,2.317000,1.056500,-0.495500,1
-7.205653,1.749426,-4.171395,2.317500,1.053800,-0.496500,1
-7.205653,1.749426,-4.171395,2.318100,1.051200,-0.497700,1
-7.205653,1.710199,-4.210622,2.318600,1.048400,-0.498900,1
-7.205653,1.553293,-4.171395,2.319000,1.045900,-0.499900,1
-7.205653,1.553293,-4.171395,2.319400,1.043200,-0.501000,1
-7.127200,1.474840,-4.092942,2.319800,1.040600,-0.502000,1
-7.087973,1.435613,-4.132168,2.320200,1.037800,-0.503200,1
-7.205653,1.435613,-4.210622,2.320500,1.035300,-0.504400,1
-7.480239,1.435613,-4.289075,2.320900,1.032600,-0.505600,1
-7.480239,1.435613,-4.289075,2.321300,1.030200,-0.506700,1
-7.637145,1.435613,-4.328301,2.321900,1.027600,-0.507700,1
-7.676372,1.474840,-4.406754,2.322500,1.025300,-0.508800,1
-7.676372,1.474840,-4.406754,2.323000,1.023000,-0.510300,1
-7.637145,1.435613,-4.406754,2.323600,1.020900,-0.511500,1
-7.558692,1.553293,-4.328301,2.324400,1.018700,-0.512800,1
-7.558692,1.749426,-4.249848,2.325100,1.016700,-0.514500,1
-7.558692,1.749426,-4.249848,2.325700,1.014600,-0.516000,1
-7.558692,2.024012,-4.171395,2.326300,1.012600,-0.517700,1
-7.637145,2.337825,-4.092942,2.326900,1.010700,-0.519100,1
-7.794052,2.612411,-4.132168,2.327300,1.008600,-0.520800,1
-7.794052,2.612411,-4.132168,2.327600,1.006700,-0.522400,1
-7.990185,2.612411,-4.092942,2.327800,1.004900,-0.524000,1
-8.225544,2.808544,-4.053715,2.328000,1.003100,-0.525400,1
-8.264771,2.847771,-4.053715,2.328100,1.001300,-0.527000,1
-8.264771,2.847771,-4.053715,2.328100,0.999500,-0.528500,1
-8.264771,2.886997,-4.014488,2.328200,0.997700,-0.530000,1
-8.421678,2.965451,-3.936036,2.328100,0.995900,-0.531700,1
-8.421678,2.965451,-3.936036,2.328100,0.994000,-0.533400,1
-8.500131,2.965451,-3.975262,2.328200,0.992100,-0.534900,1
-8.617810,3.004677,-4.092942,2.328200,0.990300,-0.536500,1
-8.696263,2.808544,-4.132168,2.328100,0.988300,-0.538200,1
-8.696263,2.808544,-4.132168,2.328100,0.986300,-0.539900,1
-8.735491,2.573185,-4.171395,2.328200,0.984400,-0.541600,1
-8.657037,2.337825,-4.289075,2.328200,0.982400,-0.543500,1
-8.735491,2.220145,-4.367528,2.328200,0.980300,-0.545300,1
-8.735491,2.220145,-4.367528,2.328200,0.978300,-0.547100,1
-8.735491,2.180918,-4.406754,2.328200,0.976100,-0.549000,1
-8.735491,2.141692,-4.445981,2.328200,0.974000,-0.550900,1
-8.774717,2.063239,-4.602888,2.328200,0.971900,-0.552700,1
-8.774717,2.063239,-4.602888,2.328100,0.969400,-0.554800,1
-8.696263,1.906332,-4.642114,2.328100,0.967200,-0.556700,1
-8.735491,1.827879,-4.720567,2.327900,0.965000,-0.558700,1
-8.657037,1.827879,-4.720567,2.327800,0.962800,-0.560400,1
-8.657037,1.827879,-4.720567,2.327600,0.960600,-0.562400,1
-8.578584,1.749426,-4.720567,2.327400,0.958300,-0.564400,1
-8.578584,1.827879,-4.681341,2.327300,0.956100,-0.566100,1
-8.578584,1.827879,-4.681341,2.327000,0.953800,-0.568200,1
-8.578584,1.788652,-4.720567,2.326900,0.951500,-0.570200,1
-8.578584,1.827879,-4.759794,2.326800,0.949300,-0.571900,1
-8.617810,1.788652,-4.799020,2.326800,0.946800,-0.573900,1
-8.735491,1.867105,-4.799020,2.326700,0.944700,-0.575900,1
-8.735491,1.867105,-4.799020,2.326700,0.942500,-0.577700,1
-8.696263,1.867105,-4.799020,2.326800,0.940300,-0.579800,1
-8.735491,1.906332,-4.877474,2.326900,0.938300,-0.581800,1
-8.735491,1.906332,-4.877474,2.327100,0.936400,-0.583700,1
-8.774717,1.906332,-4.995153,2.327500,0.934600,-0.585600,1
-8.774717,1.788652,-5.152060,2.327900,0.932600,-0.587600,1
-8.813943,1.631746,-5.230514,2.328500,0.931000,-0.589300,1
-8.813943,1.631746,-5.230514,2.328900,0.929300,-0.591400,1
-8.853169,1.435613,-5.269740,2.329500,0.927700,-0.593400,1
-8.813943,1.317933,-5.426646,2.330100,0.926200,-0.595200,1
-8.813943,1.200253,-5.622779,2.330700,0.925000,-0.596900,1
-8.853169,1.161027,-5.622779,2.331400,0.923700,-0.598700,1
-8.853169,1.161027,-5.622779,2.332000,0.922200,-0.600700,1
-8.892397,1.239480,-5.740459,2.332700,0.921100,-0.602200,1
-8.853169,1.357160,-5.858139,2.333300,0.919800,-0.604000,1
-8.853169,1.357160,-5.858139,2.334000,0.919100,-0.605300,1
-8.892397,1.514066,-5.936592,2.334600,0.917900,-0.607000,1
-8.970850,1.592519,-6.015045,2.335200,0.916700,-0.608900,1
-8.970850,1.749426,-6.093498,2.335800,0.915900,-0.610200,1
-8.931623,1.788652,-6.132725,2.336400,0.914900,-0.611900,1
-8.931623,1.788652,-6.132725,2.336900,0.913900,-0.613400,1
-8.931623,1.670973,-6.171951,2.337500,0.913200,-0.614700,1
-8.853169,1.670973,-6.211178,2.338100,0.912500,-0.615900,1
-8.853169,1.670973,-6.211178,2.338600,0.911600,-0.617200,1
-8.813943,1.553293,-6.289631,2.339100,0.910700,-0.618600,1
-8.853169,1.357160,-6.289631,2.339700,0.910300,-0.619400,1
-8.853169,1.239480,-6.368085,2.340200,0.909600,-0.620600,1
-8.853169,1.239480,-6.368085,2.340600,0.908700,-0.622000,1
-8.892397,1.239480,-6.368085,2.341200,0.908300,-0.622900,1
-8.931623,1.317933,-6.446538,2.341700,0.907800,-0.623800,1
-8.931623,1.317933,-6.446538,2.342100,0.907000,-0.624900,1
-9.010077,1.474840,-6.407311,2.342500,0.906500,-0.625800,1
-9.127756,1.631746,-6.446538,2.343000,0.906200,-0.626400,1
-9.127756,1.631746,-6.446538,2.343400,0.905800,-0.627100,1
-9.127756,1.945559,-6.289631,2.343700,0.905200,-0.628000,1
-9.127756,1.945559,-6.289631,2.344000,0.904800,-0.628700,1
-9.127756,1.984785,-6.328858,2.344200,0.904500,-0.629200,1
-9.049303,2.024012,-6.328858,2.344300,0.904100,-0.629800,1
-9.049303,2.024012,-6.328858,2.344400,0.903500,-0.630700,1
-9.049303,2.141692,-6.328858,2.344400,0.903200,-0.631200,1
-9.010077,2.063239,-6.446538,2.344400,0.902900,-0.631600,1
-9.010077,2.063239,-6.446538,2.344400,0.902500,-0.632200,1
-8.853169,2.102465,-6.368085,2.344300,0.901900,-0.633100,1
-8.853169,2.102465,-6.368085,2.344100,0.901700,-0.633400,1
-8.892397,2.102465,-6.407311,2.344000,0.901200,-0.634300,1
-8.774717,2.102465,-6.407311,2.343900,0.900800,-0.634900,1
-8.774717,2.102465,-6.407311,2.343700,0.900300,-0.635800,1
-8.696263,2.063239,-6.485765,2.343500,0.899900,-0.636500,1
-8.657037,2.063239,-6.524991,2.343200,0.899600,-0.637000,1
-8.657037,2.024012,-6.564218,2.343000,0.899200,-0.637600,1
-8.657037,2.024012,-6.564218,2.342700,0.898800,-0.638400,1
-8.657037,1.984785,-6.603444,2.342300,0.898400,-0.639000,1
-8.696263,2.024012,-6.564218,2.341800,0.898000,-0.639600,1
-8.696263,2.024012,-6.564218,2.341400,0.897600,-0.640300,1
-8.735491,2.102465,-6.564218,2.340900,0.897200,-0.641100,1
-8.735491,2.180918,-6.564218,2.340400,0.896800,-0.641800,1
-8.813943,2.259372,-6.524991,2.339900,0.896300,-0.642800,1
-8.813943,2.259372,-6.524991,2.339400,0.895800,-0.643800,1
-8.774717,2.298598,-6.524991,2.338900,0.895500,-0.644500,1
-8.813943,2.220145,-6.524991,2.338300,0.895000,-0.645500,1
-8.813943,2.220145,-6.524991,2.337700,0.894600,-0.646400,1
-8.813943,2.180918,-6.564218,2.337200,0.894300,-0.647200,1
-8.892397,2.220145,-6.564218,2.336600,0.894000,-0.648100,1
-8.931623,2.220145,-6.603444,2.336100,0.893700,-0.649000,1
-8.970850,2.141692,-6.564218,2.335500,0.893500,-0.649800,1
-9.010077,2.141692,-6.564218,2.334900,0.893200,-0.650700,1
-9.010077,2.141692,-6.564218,2.334400,0.893000,-0.651500,1
-9.010077,2.180918,-6.603444,2.333900,0.892800,-0.652300,1
-9.010077,2.102465,-6.603444,2.333300,0.892500,-0.653200,1
-9.010077,2.102465,-6.603444,2.332800,0.892300,-0.654000,1
-9.010077,2.102465,-6.603444,2.332300,0.892100,-0.654800,1
-9.010077,2.063239,-6.642671,2.331700,0.891800,-0.655700,1
-9.010077,2.063239,-6.642671,2.331200,0.891600,-0.656500,1
-9.088530,2.024012,-6.642671,2.330700,0.891400,-0.657200,1
-9.088530,2.024012,-6.603444,2.330200,0.891100,-0.658000,1
-9.010077,1.945559,-6.642671,2.329800,0.890900,-0.658700,1
-9.010077,1.945559,-6.642671,2.329300,0.890600,-0.659500,1
-9.010077,1.984785,-6.642671,2.328800,0.890300,-0.660100,1
-9.049303,1.945559,-6.642671,2.328400,0.890100,-0.660900,1
-9.010077,1.906332,-6.681898,2.328000,0.889700,-0.661600,1
-9.049303,1.906332,-6.681898,2.327600,0.889400,-0.662300,1
-9.049303,1.906332,-6.681898,2.327200,0.889100,-0.663000,1
-9.088530,1.867105,-6.681898,2.326800,0.888800,-0.663500,1
-9.049303,1.906332,-6.721124,2.326500,0.888500,-0.664200,1
-9.049303,1.906332,-6.721124,2.326200,0.888200,-0.664800,1
-9.127756,1.906332,-6.721124,2.326000,0.888000,-0.665400,1
-9.127756,1.906332,-6.681898,2.325700,0.887700,-0.665900,1
-9.166983,1.906332,-6.799577,2.325500,0.887400,-0.666500,1
-9.245436,1.867105,-6.760351,2.325300,0.887100,-0.667000,1
-9.245436,1.867105,-6.760351,2.325100,0.886900,-0.667500,1
-9.245436,1.906332,-6.760351,2.325000,0.886700,-0.668000,1
-9.206209,1.867105,-6.799577,2.324800,0.886400,-0.668500,1
-9.206209,1.867105,-6.799577,2.324700,0.886200,-0.668900,1
-9.245436,1.906332,-6.838804,2.324600,0.886000,-0.669300,1
-9.206209,1.788652,-6.799577,2.324500,0.885900,-0.669600,1
-9.166983,1.749426,-6.799577,2.324400,0.885700,-0.669900,1
-9.245436,1.631746,-6.917257,2.324400,0.885600,-0.670200,1
-9.245436,1.631746,-6.917257,2.324300,0.885400,-0.670500,1
-9.206209,1.592519,-6.917257,2.324300,0.885200,-0.670900,1
-9.166983,1.435613,-7.034937,2.324200,0.885100,-0.671100,1
-9.166983,1.435613,-7.034937,2.324200,0.884900,-0.671400,1
-9.206209,1.357160,-6.995710,2.324200,0.884800,-0.671600,1
-9.166983,1.278707,-7.034937,2.324200,0.884700,-0.671700,1
-9.206209,1.435613,-6.956484,2.324200,0.884600,-0.671900,1
-9.166983,1.553293,-6.956484,2.324300,0.884600,-0.672000,1
-9.166983,1.553293,-6.956484,2.324300,0.884500,-0.672200,1
-9.127756,1.631746,-6.956484,2.324300,0.884400,-0.672300,1
-9.166983,1.710199,-6.956484,2.324400,0.884300,-0.672400,1
-9.127756,1.670973,-6.995710,2.324500,0.884300,-0.672500,1
-9.127756,1.670973,-6.995710,2.324600,0.884300,-0.672500,1
-9.127756,1.670973,-7.034937,2.324700,0.884300,-0.672600,1
-9.088530,1.592519,-6.995710,2.324800,0.884300,-0.672500,1
-9.049303,1.514066,-6.995710,2.325000,0.884400,-0.672500,1
-9.049303,1.514066,-6.995710,2.325100,0.884400,-0.672500,1
-9.088530,1.474840,-7.034937,2.325300,0.884500,-0.672400,1
-9.088530,1.435613,-7.074163,2.325400,0.884500,-0.672400,1
-9.088530,1.435613,-7.074163,2.325600,0.884600,-0.672400,1
-9.127756,1.435613,-7.034937,2.325800,0.884700,-0.672300,1
-9.127756,1.396386,-7.034937,2.325900,0.884800,-0.672200,1
-9.127756,1.396386,-7.034937,2.326000,0.884800,-0.672200,1
-9.127756,1.396386,-6.995710,2.326100,0.884900,-0.672100,1
-9.127756,1.474840,-6.995710,2.326200,0.884900,-0.672000,1
-9.166983,1.553293,-6.995710,2.326200,0.885000,-0.672000,1
-9.166983,1.553293,-6.995710,2.326300,0.885000,-0.671900,1
-9.166983,1.553293,-6.995710,2.326300,0.885000,-0.671900,1
-9.166983,1.553293,-6.917257,2.326400,0.885100,-0.671800,1
-9.206209,1.553293,-6.956484,2.326400,0.885100,-0.671700,1
-9.206209,1.553293,-6.917257,2.326500,0.885100,-0.671700,1
-9.206209,1.553293,-6.917257,2.326600,0.885200,-0.671600,1
-9.166983,1.553293,-6.917257,2.326600,0.885200,-0.671500,1
-9.166983,1.514066,-7.034937,2.326700,0.885200,-0.671500,1
-9.166983,1.474840,-7.034937,2.326800,0.885200,-0.671400,1
-9.166983,1.474840,-7.034937,2.326800,0.885200,-0.671300,1
-9.127756,1.435613,-7.034937,2.326900,0.885200,-0.671300,1
-9.206209,1.435613,-7.074163,2.327000,0.885200,-0.671100,1
-9.206209,1.435613,-7.074163,2.327000,0.885200,-0.671100,1
-9.166983,1.474840,-7.034937,2.327000,0.885100,-0.671000,1
-9.127756,1.435613,-7.074163,2.327100,0.885100,-0.671000,1
-9.166983,1.474840,-7.074163,2.327100,0.885000,-0.670900,1
-9.166983,1.514066,-7.152617,2.327100,0.885000,-0.670900,1
-9.127756,1.474840,-7.074163,2.327100,0.884900,-0.670800,1
-9.127756,1.474840,-7.074163,2.327100,0.884900,-0.670800,1
-9.166983,1.435613,-7.152617,2.327100,0.884800,-0.670700,1
-9.206209,1.396386,-7.113390,2.327100,0.884700,-0.670700,1
-9.206209,1.396386,-7.113390,2.327100,0.884700,-0.670600,1
-9.166983,1.435613,-7.231070,2.327100,0.884600,-0.670600,1
-9.245436,1.474840,-7.231070,2.327100,0.884500,-0.670500,1
-9.245436,1.474840,-7.231070,2.327100,0.884400,-0.670500,1
-9.166983,1.435613,-7.270297,2.327000,0.884400,-0.670400,1
-9.245436,1.474840,-7.270297,2.327000,0.884200,-0.670400,1
-9.206209,1.435613,-7.270297,2.326900,0.884100,-0.670300,1
-9.245436,1.435613,-7.231070,2.326900,0.884000,-0.670300,1
-9.245436,1.474840,-7.270297,2.326800,0.883900,-0.670300,1
-9.284663,1.514066,-7.191844,2.326700,0.883700,-0.670200,1
-9.284663,1.514066,-7.191844,2.326600,0.883600,-0.670200,1
-9.284663,1.553293,-7.231070,2.326600,0.883500,-0.670200,1
-9.323890,1.514066,-7.231070,2.326500,0.883300,-0.670100,1
-9.323890,1.514066,-7.231070,2.326400,0.883200,-0.670100,1
-9.363116,1.474840,-7.191844,2.326400,0.883000,-0.670100,1
-9.441569,1.396386,-7.191844,2.326300,0.882800,-0.670200,1
-9.402342,1.357160,-7.191844,2.326200,0.882600,-0.670200,1
-9.402342,1.317933,-7.231070,2.326100,0.882400,-0.670200,1
-9.402342,1.278707,-7.152617,2.326000,0.882200,-0.670200,1
-9.402342,1.278707,-7.152617,2.325900,0.882000,-0.670400,1
-9.363116,1.239480,-7.191844,2.325800,0.881900,-0.670200,1
-9.363116,1.317933,-7.191844,2.325700,0.881700,-0.670200,1
-9.363116,1.317933,-7.191844,2.325700,0.881500,-0.670300,1
-9.323890,1.278707,-7.113390,2.325600,0.881300,-0.670300,1
-9.363116,1.278707,-7.191844,2.325500,0.881100,-0.670400,1
-9.363116,1.278707,-7.191844,2.325500,0.880800,-0.670600,1
-9.363116,1.278707,-7.152617,2.325400,0.880600,-0.670700,1
-9.363116,1.278707,-7.152617,2.325400,0.880400,-0.670800,1
-9.441569,0.729534,-7.427203,2.325400,0.880100,-0.671100,1
-9.363116,0.925667,-7.427203,2.325400,0.879800,-0.671300,1
-9.402342,1.121800,-7.270297,2.325400,0.879600,-0.671400,1
-9.402342,1.317933,-7.152617,2.325300,0.879400,-0.671500,1
-9.402342,1.357160,-7.191844,2.325300,0.879300,-0.671700,1
-9.402342,1.357160,-7.191844,2.325200,0.879100,-0.671800,1
-9.363116,1.396386,-7.152617,2.325200,0.878900,-0.672000,1
-9.402342,1.396386,-7.270297,2.325100,0.878700,-0.672100,1
-9.402342,1.396386,-7.270297,2.325000,0.878500,-0.672300,1
-9.480796,1.317933,-7.270297,2.324900,0.878300,-0.672400,1
-9.520022,1.239480,-7.387976,2.324800,0.878100,-0.672600,1
-9.520022,1.239480,-7.387976,2.324700,0.877900,-0.672700,1
-9.480796,1.239480,-7.348750,2.324600,0.877700,-0.672800,1
-9.402342,1.239480,-7.348750,2.324500,0.877500,-0.673000,1
-9.402342,1.317933,-7.309523,2.324400,0.877400,-0.673100,1
-9.402342,1.317933,-7.309523,2.324200,0.877200,-0.673200,1
-9.441569,1.239480,-7.544883,2.324000,0.877000,-0.673300,1
-9.441569,1.200253,-7.544883,2.323900,0.876800,-0.673600,1
-9.441569,1.278707,-7.544883,2.323700,0.876700,-0.673700,1
-9.284663,1.278707,-7.466430,2.323600,0.876500,-0.673800,1
-9.284663,1.278707,-7.466430,2.323500,0.876500,-0.673900,1
-9.245436,1.278707,-7.466430,2.323300,0.876400,-0.673900,1
-9.206209,1.317933,-7.427203,2.323200,0.876300,-0.674000,1
-9.245436,1.435613,-7.309523,2.323100,0.876200,-0.674100,1
-9.245436,1.435613,-7.309523,2.322900,0.876200,-0.674200,1
-9.245436,1.396386,-7.309523,2.322800,0.876100,-0.674200,1
-9.284663,1.278707,-7.427203,2.322600,0.876000,-0.674400,1
-9.284663,1.161027,-7.466430,2.322400,0.876000,-0.674400,1
-9.284663,1.161027,-7.466430,2.322300,0.876000,-0.674400,1
-9.323890,1.043347,-7.544883,2.322100,0.876000,-0.674500,1
-9.402342,1.043347,-7.623336,2.321900,0.876000,-0.674500,1
-9.402342,1.043347,-7.623336,2.321600,0.876000,-0.674500,1
-9.402342,1.082574,-7.505656,2.321400,0.876000,-0.674500,1
-9.363116,1.121800,-7.387976,2.321000,0.876000,-0.674500,1
-9.363116,1.121800,-7.387976,2.320600,0.876000,-0.674500,1
-9.363116,1.161027,-7.466430,2.320000,0.875900,-0.674500,1
-9.402342,1.161027,-7.466430,2.319500,0.875900,-0.674500,1
-9.402342,1.161027,-7.466430,2.318800,0.875800,-0.674500,1
-9.480796,1.592519,-7.348750,2.318100,0.875800,-0.674600,1
-9.480796,1.474840,-7.348750,2.317400,0.875700,-0.674600,1
-9.480796,1.474840,-7.348750,2.316800,0.875600,-0.674700,1
-9.480796,1.435613,-7.466430,2.316000,0.875500,-0.674700,1
-9.441569,1.435613,-7.387976,2.315300,0.875500,-0.674800,1
-9.441569,1.435613,-7.387976,2.314600,0.875400,-0.674800,1
-9.441569,1.474840,-7.387976,2.314000,0.875300,-0.674800,1
-9.402342,1.553293,-7.348750,2.313200,0.875200,-0.674900,1
-9.402342,1.553293,-7.348750,2.312500,0.875100,-0.674900,1
-9.323890,1.631746,-7.309523,2.311800,0.875100,-0.675000,1
-9.323890,1.710199,-7.309523,2.311100,0.875000,-0.675100,1
-9.284663,1.631746,-7.270297,2.310500,0.875000,-0.675100,1
-9.323890,1.474840,-7.270297,2.309700,0.875000,-0.675200,1
-9.323890,1.474840,-7.270297,2.309000,0.874900,-0.675400,1
-9.323890,1.357160,-7.387976,2.308400,0.874800,-0.675500,1
-9.323890,1.161027,-7.427203,2.307600,0.874800,-0.675600,1
-9.323890,1.161027,-7.427203,2.307000,0.874800,-0.675700,1
-9.363116,1.082574,-7.505656,2.306300,0.874800,-0.675700,1
-9.363116,1.004120,-7.427203,2.305600,0.874700,-0.675900,1
-9.323890,1.161027,-7.387976,2.304900,0.874700,-0.676000,1
-9.323890,1.161027,-7.387976,2.304200,0.874700,-0.676200,1
-9.245436,1.357160,-7.387976,2.303500,0.874800,-0.676400,1
-9.206209,1.474840,-7.348750,2.302800,0.874700,-0.676600,1
-9.206209,1.474840,-7.348750,2.302200,0.874700,-0.676700,1
-9.323890,1.670973,-7.348750,2.301500,0.874700,-0.677000,1
-9.323890,1.788652,-7.348750,2.300800,0.874700,-0.677200,1
-9.284663,1.867105,-7.309523,2.300100,0.874600,-0.677400,1
-9.323890,1.867105,-7.387976,2.299400,0.874600,-0.677500,1
-9.323890,1.867105,-7.387976,2.298800,0.874600,-0.677700,1
-9.323890,1.867105,-7.427203,2.298100,0.874500,-0.677900,1
-9.323890,1.867105,-7.387976,2.297400,0.874500,-0.678300,1
-9.363116,1.827879,-7.387976,2.296800,0.874400,-0.678500,1
-9.323890,1.827879,-7.466430,2.296200,0.874200,-0.678800,1
-9.323890,1.827879,-7.466430,2.295500,0.874200,-0.679100,1
-9.363116,1.749426,-7.505656,2.294800,0.874100,-0.679400,1
-9.323890,1.710199,-7.427203,2.294100,0.873900,-0.679600,1
-9.323890,1.710199,-7.427203,2.293400,0.873800,-0.680000,1
-9.245436,1.670973,-7.466430,2.292700,0.873600,-0.680200,1
-9.245436,1.670973,-7.505656,2.291900,0.873500,-0.680500,1
-9.323890,1.631746,-7.505656,2.291100,0.873400,-0.680900,1
-9.323890,1.631746,-7.505656,2.290400,0.873200,-0.681200,1
-9.323890,1.514066,-7.505656,2.289600,0.873100,-0.681600,1
-9.402342,1.435613,-7.584109,2.288800,0.873000,-0.681900,1
-9.402342,1.435613,-7.584109,2.288000,0.872800,-0.682300,1
-9.441569,1.474840,-7.544883,2.287200,0.872700,-0.682700,1
-9.363116,1.239480,-7.505656,2.286500,0.872600,-0.683000,1
-9.402342,1.239480,-7.544883,2.285700,0.872400,-0.683500,1
-9.402342,1.200253,-7.505656,2.285000,0.872300,-0.683800,1
-9.402342,1.200253,-7.505656,2.284400,0.872200,-0.684200,1
-9.402342,1.200253,-7.505656,2.283800,0.872200,-0.684500,1
-9.441569,1.239480,-7.466430,2.283200,0.872100,-0.684900,1
-9.441569,1.239480,-7.466430,2.282700,0.872000,-0.685300,1
-9.480796,1.357160,-7.466430,2.282000,0.872000,-0.685700,1
-9.480796,1.357160,-7.466430,2.281400,0.871900,-0.686100,1
-9.520022,1.357160,-7.427203,2.280900,0.871900,-0.686300,1
-9.520022,1.357160,-7.427203,2.280300,0.871800,-0.686700,1
-9.559249,1.317933,-7.466430,2.279700,0.871800,-0.687200,1
-9.520022,1.357160,-7.466430,2.279200,0.871800,-0.687600,1
-9.520022,1.357160,-7.466430,2.278800,0.871800,-0.687900,1
-9.480796,1.278707,-7.427203,2.278300,0.871800,-0.688200,1
-9.480796,1.317933,-7.387976,2.277900,0.871800,-0.688500,1
